Timestamp,	Gyro_x,	Gyro_y,	Gyro_z,	Acc_x,	Acc_y,	Acc_z,	Orie_x,	Orie_y,	Orie_z,	Orie_w,	Temp_C
15:30:36.97,	0.036,	-0.066,	-0.294,	-0.200,	0.200,	-0.950,	-0.017,	0.045,	-0.790,	-0.611,	7.00
15:30:37.01,	0.034,	-0.064,	-0.296,	-0.220,	0.190,	-0.960,	-0.019,	0.045,	-0.788,	-0.614,	7.00
15:30:37.06,	0.038,	-0.059,	-0.296,	-0.240,	0.170,	-0.970,	-0.021,	0.044,	-0.786,	-0.616,	7.00
15:30:37.10,	0.044,	-0.061,	-0.299,	-0.270,	0.130,	-0.930,	-0.023,	0.044,	-0.783,	-0.620,	7.00
15:30:37.15,	0.064,	-0.063,	-0.307,	-0.300,	0.070,	-0.940,	-0.025,	0.043,	-0.779,	-0.625,	7.00
15:30:37.20,	0.073,	-0.067,	-0.308,	-0.310,	0.020,	-0.940,	-0.027,	0.043,	-0.775,	-0.630,	7.00
15:30:37.25,	0.072,	-0.073,	-0.309,	-0.330,	-0.010,	-0.930,	-0.029,	0.042,	-0.772,	-0.634,	7.00
15:30:37.29,	0.076,	-0.079,	-0.306,	-0.350,	-0.060,	-0.860,	-0.031,	0.041,	-0.768,	-0.638,	7.00
15:30:37.34,	0.092,	-0.088,	-0.310,	-0.390,	-0.080,	-0.860,	-0.034,	0.040,	-0.764,	-0.643,	7.00
15:30:37.39,	0.100,	-0.097,	-0.312,	-0.400,	-0.130,	-0.850,	-0.036,	0.039,	-0.759,	-0.649,	7.00
15:30:37.43,	0.096,	-0.097,	-0.313,	-0.420,	-0.200,	-0.790,	-0.037,	0.039,	-0.755,	-0.653,	7.00
15:30:37.48,	0.102,	-0.091,	-0.313,	-0.440,	-0.210,	-0.780,	-0.039,	0.038,	-0.751,	-0.658,	7.00
15:30:37.53,	0.118,	-0.081,	-0.314,	-0.440,	-0.250,	-0.730,	-0.041,	0.036,	-0.746,	-0.663,	7.00
15:30:37.57,	0.129,	-0.083,	-0.319,	-0.410,	-0.310,	-0.650,	-0.042,	0.035,	-0.742,	-0.668,	7.00
15:30:37.62,	0.124,	-0.097,	-0.317,	-0.420,	-0.370,	-0.640,	-0.043,	0.034,	-0.735,	-0.675,	7.00
15:30:37.67,	0.127,	-0.113,	-0.313,	-0.430,	-0.380,	-0.560,	-0.044,	0.034,	-0.730,	-0.681,	7.00
15:30:37.72,	0.134,	-0.116,	-0.319,	-0.440,	-0.390,	-0.510,	-0.045,	0.034,	-0.725,	-0.686,	7.00
15:30:37.76,	0.150,	-0.111,	-0.321,	-0.440,	-0.470,	-0.450,	-0.046,	0.033,	-0.718,	-0.693,	7.00
15:30:37.81,	0.148,	-0.099,	-0.317,	-0.430,	-0.480,	-0.370,	-0.047,	0.032,	-0.711,	-0.701,	7.00
15:30:37.86,	0.146,	-0.096,	-0.317,	-0.420,	-0.510,	-0.300,	-0.047,	0.032,	-0.704,	-0.708,	7.00
15:30:37.91,	0.157,	-0.099,	-0.318,	-0.400,	-0.530,	-0.260,	-0.047,	0.031,	-0.696,	-0.716,	7.00
15:30:37.95,	0.164,	-0.108,	-0.317,	-0.400,	-0.540,	-0.200,	-0.048,	0.031,	-0.692,	-0.720,	7.00
15:30:38.00,	0.166,	-0.116,	-0.317,	-0.390,	-0.570,	-0.140,	-0.048,	0.031,	-0.684,	-0.727,	7.00
15:30:38.05,	0.162,	-0.112,	-0.316,	-0.390,	-0.580,	-0.090,	-0.049,	0.031,	-0.676,	-0.735,	7.00
15:30:38.10,	0.168,	-0.104,	-0.317,	-0.390,	-0.590,	-0.080,	-0.049,	0.031,	-0.667,	-0.743,	7.00
15:30:38.15,	0.171,	-0.096,	-0.314,	-0.370,	-0.610,	0.050,	-0.049,	0.030,	-0.658,	-0.751,	7.00
15:30:38.19,	0.172,	-0.092,	-0.316,	-0.350,	-0.650,	0.150,	-0.048,	0.030,	-0.649,	-0.759,	7.00
15:30:38.24,	0.169,	-0.090,	-0.311,	-0.320,	-0.650,	0.190,	-0.048,	0.030,	-0.640,	-0.767,	7.00
15:30:38.29,	0.169,	-0.093,	-0.311,	-0.320,	-0.630,	0.240,	-0.048,	0.030,	-0.629,	-0.775,	7.00
15:30:38.33,	0.171,	-0.090,	-0.310,	-0.300,	-0.640,	0.290,	-0.047,	0.030,	-0.620,	-0.783,	7.00
15:30:38.38,	0.177,	-0.090,	-0.311,	-0.310,	-0.670,	0.290,	-0.047,	0.031,	-0.609,	-0.791,	7.00
15:30:38.42,	0.173,	-0.086,	-0.311,	-0.290,	-0.690,	0.330,	-0.047,	0.031,	-0.600,	-0.798,	7.00
15:30:38.47,	0.164,	-0.077,	-0.307,	-0.270,	-0.680,	0.330,	-0.046,	0.031,	-0.588,	-0.807,	7.00
15:30:38.51,	0.164,	-0.070,	-0.307,	-0.260,	-0.690,	0.340,	-0.045,	0.031,	-0.576,	-0.816,	7.00
15:30:38.56,	0.172,	-0.069,	-0.307,	-0.260,	-0.690,	0.370,	-0.045,	0.031,	-0.571,	-0.819,	7.00
15:30:38.61,	0.170,	-0.064,	-0.306,	-0.250,	-0.700,	0.400,	-0.044,	0.031,	-0.559,	-0.827,	7.00
15:30:38.65,	0.161,	-0.066,	-0.303,	-0.230,	-0.690,	0.390,	-0.044,	0.031,	-0.549,	-0.834,	7.00
15:30:38.70,	0.164,	-0.067,	-0.306,	-0.220,	-0.700,	0.410,	-0.043,	0.031,	-0.536,	-0.842,	7.00
15:30:38.75,	0.173,	-0.062,	-0.306,	-0.220,	-0.680,	0.410,	-0.042,	0.032,	-0.525,	-0.849,	7.00
15:30:38.79,	0.166,	-0.053,	-0.303,	-0.190,	-0.710,	0.420,	-0.042,	0.032,	-0.515,	-0.856,	7.00
15:30:38.84,	0.154,	-0.039,	-0.301,	-0.160,	-0.680,	0.470,	-0.041,	0.032,	-0.503,	-0.863,	7.00
15:30:38.89,	0.159,	-0.039,	-0.300,	-0.180,	-0.680,	0.470,	-0.040,	0.031,	-0.493,	-0.869,	7.00
15:30:38.94,	0.164,	-0.044,	-0.304,	-0.140,	-0.680,	0.430,	-0.040,	0.031,	-0.481,	-0.875,	7.00
15:30:38.98,	0.162,	-0.048,	-0.302,	-0.140,	-0.710,	0.430,	-0.039,	0.032,	-0.469,	-0.881,	7.00
15:30:39.03,	0.157,	-0.039,	-0.303,	-0.150,	-0.680,	0.410,	-0.038,	0.032,	-0.459,	-0.887,	7.00
15:30:39.08,	0.158,	-0.031,	-0.303,	-0.140,	-0.670,	0.390,	-0.038,	0.032,	-0.449,	-0.892,	7.00
15:30:39.12,	0.159,	-0.023,	-0.302,	-0.130,	-0.690,	0.370,	-0.037,	0.031,	-0.439,	-0.897,	7.00
15:30:39.17,	0.159,	-0.020,	-0.301,	-0.090,	-0.680,	0.380,	-0.037,	0.031,	-0.429,	-0.902,	7.00
15:30:39.22,	0.152,	-0.021,	-0.299,	-0.100,	-0.700,	0.370,	-0.036,	0.031,	-0.419,	-0.907,	7.00
15:30:39.26,	0.153,	-0.024,	-0.301,	-0.100,	-0.680,	0.370,	-0.035,	0.031,	-0.414,	-0.909,	7.00
15:30:39.31,	0.154,	-0.026,	-0.304,	-0.070,	-0.690,	0.370,	-0.035,	0.031,	-0.404,	-0.914,	7.00
15:30:39.36,	0.157,	-0.019,	-0.307,	-0.080,	-0.700,	0.340,	-0.035,	0.031,	-0.395,	-0.917,	7.00
15:30:39.41,	0.150,	-0.014,	-0.303,	-0.060,	-0.680,	0.310,	-0.034,	0.031,	-0.385,	-0.922,	7.00
15:30:39.46,	0.142,	-0.013,	-0.300,	-0.040,	-0.680,	0.270,	-0.033,	0.031,	-0.375,	-0.926,	7.00
15:30:39.51,	0.142,	-0.008,	-0.303,	-0.040,	-0.670,	0.250,	-0.032,	0.031,	-0.365,	-0.930,	7.00
15:30:39.55,	0.141,	-0.007,	-0.302,	-0.030,	-0.670,	0.190,	-0.032,	0.031,	-0.356,	-0.933,	7.00
15:30:39.60,	0.137,	-0.007,	-0.302,	-0.010,	-0.670,	0.170,	-0.031,	0.031,	-0.348,	-0.937,	7.00
15:30:39.64,	0.134,	-0.011,	-0.303,	-0.030,	-0.670,	0.140,	-0.030,	0.031,	-0.340,	-0.940,	7.00
15:30:39.69,	0.133,	-0.011,	-0.304,	-0.040,	-0.650,	0.100,	-0.030,	0.031,	-0.330,	-0.943,	7.00
15:30:39.73,	0.129,	-0.013,	-0.302,	-0.030,	-0.650,	0.070,	-0.029,	0.031,	-0.322,	-0.946,	7.00
15:30:39.78,	0.122,	-0.010,	-0.300,	-0.040,	-0.640,	0.020,	-0.029,	0.031,	-0.316,	-0.948,	7.00
15:30:39.83,	0.116,	-0.006,	-0.299,	-0.030,	-0.650,	-0.040,	-0.028,	0.031,	-0.308,	-0.951,	7.00
15:30:39.88,	0.111,	-0.004,	-0.299,	-0.020,	-0.610,	-0.060,	-0.027,	0.031,	-0.300,	-0.953,	7.00
15:30:39.92,	0.106,	-0.009,	-0.298,	-0.020,	-0.610,	-0.130,	-0.026,	0.031,	-0.293,	-0.955,	7.00
15:30:39.97,	0.104,	-0.016,	-0.298,	-0.040,	-0.630,	-0.180,	-0.026,	0.032,	-0.287,	-0.957,	7.00
15:30:40.02,	0.099,	-0.016,	-0.294,	-0.030,	-0.610,	-0.270,	-0.025,	0.032,	-0.278,	-0.960,	7.00
15:30:40.06,	0.089,	-0.009,	-0.293,	-0.030,	-0.580,	-0.320,	-0.024,	0.032,	-0.271,	-0.962,	7.00
15:30:40.11,	0.083,	-0.013,	-0.289,	-0.060,	-0.570,	-0.360,	-0.023,	0.033,	-0.264,	-0.964,	7.00
15:30:40.15,	0.082,	-0.012,	-0.284,	-0.040,	-0.550,	-0.430,	-0.023,	0.033,	-0.258,	-0.965,	7.00
15:30:40.20,	0.072,	-0.014,	-0.286,	-0.060,	-0.570,	-0.510,	-0.022,	0.033,	-0.250,	-0.967,	7.00
15:30:40.28,	0.053,	-0.013,	-0.277,	-0.080,	-0.510,	-0.560,	-0.020,	0.034,	-0.238,	-0.971,	7.00
15:30:40.33,	0.053,	-0.016,	-0.277,	-0.070,	-0.500,	-0.610,	-0.019,	0.034,	-0.233,	-0.972,	7.00
15:30:40.37,	0.047,	-0.020,	-0.274,	-0.080,	-0.500,	-0.670,	-0.018,	0.035,	-0.226,	-0.973,	7.00
15:30:40.42,	0.037,	-0.022,	-0.271,	-0.080,	-0.480,	-0.760,	-0.017,	0.035,	-0.219,	-0.975,	7.00
15:30:40.47,	0.027,	-0.020,	-0.270,	-0.110,	-0.460,	-0.780,	-0.016,	0.036,	-0.213,	-0.976,	7.00
15:30:40.52,	0.016,	-0.009,	-0.264,	-0.100,	-0.440,	-0.820,	-0.015,	0.036,	-0.208,	-0.977,	7.00
15:30:40.57,	0.004,	-0.004,	-0.262,	-0.110,	-0.430,	-0.810,	-0.013,	0.036,	-0.202,	-0.979,	7.00
15:30:40.62,	-0.002,	-0.009,	-0.260,	-0.100,	-0.390,	-0.810,	-0.012,	0.036,	-0.196,	-0.980,	7.00
15:30:40.66,	-0.007,	-0.017,	-0.258,	-0.100,	-0.380,	-0.820,	-0.011,	0.036,	-0.192,	-0.981,	7.00
15:30:40.71,	-0.019,	-0.014,	-0.257,	-0.100,	-0.360,	-0.850,	-0.010,	0.037,	-0.186,	-0.982,	7.00
15:30:40.76,	-0.027,	-0.008,	-0.251,	-0.110,	-0.340,	-0.880,	-0.008,	0.037,	-0.180,	-0.983,	7.00
15:30:40.81,	-0.033,	0.002,	-0.249,	-0.100,	-0.310,	-0.870,	-0.007,	0.037,	-0.174,	-0.984,	7.00
15:30:40.86,	-0.047,	0.009,	-0.243,	-0.100,	-0.290,	-0.900,	-0.005,	0.037,	-0.168,	-0.985,	7.00
15:30:40.90,	-0.064,	0.006,	-0.236,	-0.090,	-0.240,	-0.890,	-0.004,	0.038,	-0.164,	-0.986,	7.00
15:30:40.95,	-0.074,	0.006,	-0.233,	-0.090,	-0.210,	-0.880,	-0.002,	0.038,	-0.158,	-0.987,	7.00
15:30:41.00,	-0.068,	0.007,	-0.233,	-0.110,	-0.190,	-0.880,	0.000,	0.038,	-0.153,	-0.987,	7.00
15:30:41.04,	-0.077,	0.010,	-0.228,	-0.090,	-0.160,	-0.880,	0.002,	0.038,	-0.148,	-0.988,	7.00
15:30:41.09,	-0.092,	0.019,	-0.227,	-0.080,	-0.120,	-0.860,	0.004,	0.038,	-0.143,	-0.989,	7.00
15:30:41.14,	-0.094,	0.020,	-0.223,	-0.090,	-0.090,	-0.890,	0.006,	0.038,	-0.139,	-0.990,	7.00
15:30:41.18,	-0.096,	0.021,	-0.219,	-0.070,	-0.030,	-0.880,	0.008,	0.038,	-0.133,	-0.990,	7.00
15:30:41.23,	-0.113,	0.021,	-0.217,	-0.040,	0.000,	-0.900,	0.010,	0.038,	-0.128,	-0.991,	7.00
15:30:41.28,	-0.127,	0.021,	-0.212,	-0.080,	0.060,	-0.900,	0.013,	0.038,	-0.123,	-0.992,	7.00
15:30:41.33,	-0.126,	0.023,	-0.211,	-0.070,	0.090,	-0.940,	0.016,	0.038,	-0.118,	-0.992,	7.00
15:30:41.37,	-0.118,	0.030,	-0.213,	-0.050,	0.140,	-0.930,	0.018,	0.037,	-0.114,	-0.993,	7.00
15:30:41.42,	-0.128,	0.031,	-0.210,	-0.040,	0.160,	-0.900,	0.021,	0.037,	-0.109,	-0.993,	7.00
15:30:41.47,	-0.141,	0.028,	-0.206,	0.000,	0.250,	-0.860,	0.023,	0.037,	-0.105,	-0.994,	7.00
15:30:41.52,	-0.139,	0.018,	-0.206,	-0.050,	0.270,	-0.880,	0.026,	0.037,	-0.100,	-0.994,	7.00
15:30:41.56,	-0.137,	0.026,	-0.203,	-0.040,	0.320,	-0.900,	0.029,	0.037,	-0.095,	-0.994,	7.00
15:30:41.61,	-0.149,	0.036,	-0.201,	-0.020,	0.380,	-0.920,	0.031,	0.037,	-0.091,	-0.995,	7.00
15:30:41.66,	-0.160,	0.039,	-0.196,	-0.020,	0.420,	-0.960,	0.033,	0.036,	-0.086,	-0.995,	7.00
15:30:41.70,	-0.146,	0.034,	-0.201,	0.000,	0.460,	-1.020,	0.035,	0.036,	-0.081,	-0.995,	7.00
15:30:41.75,	-0.136,	0.027,	-0.201,	0.000,	0.470,	-0.990,	0.037,	0.036,	-0.077,	-0.996,	7.00
15:30:41.79,	-0.147,	0.023,	-0.198,	-0.040,	0.490,	-1.030,	0.039,	0.036,	-0.072,	-0.996,	7.00
15:30:41.84,	-0.159,	0.031,	-0.193,	-0.030,	0.530,	-1.060,	0.040,	0.036,	-0.068,	-0.996,	7.00
15:30:41.89,	-0.151,	0.041,	-0.194,	0.000,	0.590,	-1.070,	0.042,	0.035,	-0.066,	-0.996,	7.00
15:30:41.93,	-0.146,	0.044,	-0.193,	-0.010,	0.560,	-1.100,	0.043,	0.035,	-0.063,	-0.996,	7.00
15:30:41.98,	-0.154,	0.039,	-0.189,	-0.010,	0.600,	-1.090,	0.044,	0.035,	-0.059,	-0.997,	7.00
15:30:42.02,	-0.156,	0.037,	-0.186,	-0.020,	0.630,	-1.160,	0.045,	0.035,	-0.058,	-0.997,	7.00
15:30:42.07,	-0.152,	0.037,	-0.187,	-0.010,	0.660,	-1.200,	0.046,	0.034,	-0.055,	-0.997,	7.00
15:30:42.12,	-0.148,	0.046,	-0.186,	-0.010,	0.660,	-1.230,	0.047,	0.034,	-0.051,	-0.997,	7.00
15:30:42.16,	-0.148,	0.042,	-0.182,	0.000,	0.670,	-1.220,	0.047,	0.034,	-0.049,	-0.997,	7.00
15:30:42.21,	-0.156,	0.038,	-0.182,	0.000,	0.660,	-1.190,	0.048,	0.033,	-0.046,	-0.997,	7.00
15:30:42.26,	-0.159,	0.034,	-0.177,	-0.010,	0.690,	-1.210,	0.048,	0.033,	-0.043,	-0.997,	7.00
15:30:42.31,	-0.163,	0.039,	-0.174,	0.000,	0.720,	-1.150,	0.049,	0.033,	-0.039,	-0.997,	7.00
15:30:42.36,	-0.163,	0.046,	-0.173,	0.000,	0.710,	-1.160,	0.049,	0.033,	-0.037,	-0.998,	7.00
15:30:42.40,	-0.173,	0.057,	-0.171,	0.010,	0.700,	-1.100,	0.050,	0.032,	-0.033,	-0.998,	7.00
15:30:42.45,	-0.174,	0.051,	-0.164,	0.030,	0.730,	-1.090,	0.051,	0.032,	-0.029,	-0.998,	7.00
15:30:42.49,	-0.173,	0.042,	-0.166,	0.040,	0.740,	-1.080,	0.051,	0.031,	-0.027,	-0.998,	7.00
15:30:42.54,	-0.176,	0.034,	-0.162,	0.020,	0.720,	-1.030,	0.051,	0.031,	-0.024,	-0.998,	7.00
15:30:42.58,	-0.193,	0.036,	-0.157,	0.010,	0.720,	-1.040,	0.052,	0.031,	-0.021,	-0.998,	7.00
15:30:42.64,	-0.204,	0.042,	-0.151,	0.000,	0.750,	-0.980,	0.053,	0.031,	-0.018,	-0.998,	7.00
15:30:42.71,	-0.202,	0.046,	-0.151,	0.060,	0.790,	-0.870,	0.053,	0.031,	-0.014,	-0.998,	7.00
15:30:42.76,	-0.210,	0.043,	-0.147,	0.050,	0.770,	-0.830,	0.054,	0.031,	-0.011,	-0.998,	7.00
15:30:42.81,	-0.221,	0.032,	-0.141,	0.070,	0.790,	-0.790,	0.055,	0.031,	-0.008,	-0.998,	7.00
15:30:42.85,	-0.229,	0.034,	-0.139,	0.040,	0.820,	-0.730,	0.055,	0.031,	-0.005,	-0.998,	7.00
15:30:42.90,	-0.223,	0.029,	-0.137,	0.050,	0.840,	-0.700,	0.056,	0.031,	-0.002,	-0.998,	7.00
15:30:42.94,	-0.233,	0.027,	-0.133,	0.030,	0.820,	-0.660,	0.056,	0.031,	-0.001,	-0.998,	7.00
15:30:42.99,	-0.244,	0.024,	-0.129,	0.040,	0.840,	-0.660,	0.057,	0.031,	0.002,	-0.998,	7.00
15:30:43.03,	-0.249,	0.022,	-0.129,	0.040,	0.860,	-0.630,	0.057,	0.032,	0.005,	-0.998,	7.00
15:30:43.09,	-0.244,	0.021,	-0.126,	0.030,	0.850,	-0.530,	0.058,	0.032,	0.008,	-0.998,	7.00
15:30:43.13,	-0.249,	0.021,	-0.127,	0.030,	0.840,	-0.480,	0.058,	0.032,	0.010,	-0.998,	7.00
15:30:43.17,	-0.258,	0.021,	-0.122,	0.030,	0.880,	-0.420,	0.059,	0.032,	0.013,	-0.998,	7.00
15:30:43.22,	-0.254,	0.010,	-0.120,	0.020,	0.880,	-0.390,	0.059,	0.032,	0.015,	-0.998,	7.00
15:30:43.26,	-0.254,	0.000,	-0.120,	0.000,	0.880,	-0.360,	0.059,	0.033,	0.018,	-0.997,	7.00
15:30:43.31,	-0.260,	0.000,	-0.116,	0.010,	0.870,	-0.330,	0.060,	0.033,	0.021,	-0.997,	7.00
15:30:43.35,	-0.261,	0.004,	-0.114,	0.000,	0.900,	-0.350,	0.060,	0.034,	0.024,	-0.997,	7.00
15:30:43.40,	-0.251,	0.006,	-0.112,	0.000,	0.890,	-0.340,	0.060,	0.034,	0.026,	-0.997,	7.00
15:30:43.45,	-0.249,	0.011,	-0.116,	0.000,	0.880,	-0.270,	0.061,	0.034,	0.030,	-0.997,	7.00
15:30:43.49,	-0.256,	0.007,	-0.111,	-0.020,	0.880,	-0.240,	0.061,	0.034,	0.033,	-0.997,	7.00
15:30:43.54,	-0.253,	-0.010,	-0.111,	-0.010,	0.920,	-0.180,	0.061,	0.034,	0.035,	-0.997,	7.00
15:30:43.59,	-0.241,	-0.018,	-0.114,	0.000,	0.900,	-0.110,	0.061,	0.035,	0.038,	-0.997,	7.00
15:30:43.64,	-0.239,	-0.023,	-0.111,	-0.020,	0.890,	-0.040,	0.061,	0.035,	0.041,	-0.997,	7.00
15:30:43.68,	-0.239,	-0.014,	-0.108,	-0.030,	0.910,	-0.030,	0.061,	0.036,	0.044,	-0.997,	7.00
15:30:43.73,	-0.223,	-0.009,	-0.111,	-0.030,	0.910,	-0.020,	0.060,	0.036,	0.047,	-0.996,	7.00
15:30:43.78,	-0.213,	-0.009,	-0.110,	-0.020,	0.860,	-0.010,	0.060,	0.036,	0.050,	-0.996,	7.00
15:30:43.82,	-0.217,	-0.016,	-0.108,	-0.020,	0.850,	0.000,	0.060,	0.036,	0.053,	-0.996,	7.00
15:30:43.87,	-0.207,	-0.024,	-0.111,	-0.060,	0.870,	0.020,	0.059,	0.036,	0.055,	-0.996,	7.00
15:30:43.92,	-0.190,	-0.032,	-0.110,	-0.070,	0.850,	0.070,	0.059,	0.037,	0.058,	-0.996,	7.00
15:30:43.97,	-0.183,	-0.031,	-0.111,	-0.090,	0.850,	0.100,	0.058,	0.037,	0.061,	-0.996,	7.00
15:30:44.01,	-0.181,	-0.030,	-0.109,	-0.080,	0.820,	0.100,	0.058,	0.038,	0.063,	-0.996,	7.00
15:30:44.06,	-0.167,	-0.026,	-0.109,	-0.080,	0.810,	0.140,	0.057,	0.038,	0.066,	-0.995,	7.00
15:30:44.11,	-0.151,	-0.028,	-0.112,	-0.100,	0.790,	0.150,	0.056,	0.038,	0.069,	-0.995,	7.00
15:30:44.15,	-0.146,	-0.028,	-0.112,	-0.090,	0.780,	0.100,	0.055,	0.039,	0.072,	-0.995,	7.00
15:30:44.20,	-0.146,	-0.032,	-0.109,	-0.110,	0.750,	0.110,	0.055,	0.039,	0.075,	-0.995,	7.00
15:30:44.24,	-0.129,	-0.039,	-0.112,	-0.120,	0.740,	0.080,	0.054,	0.039,	0.077,	-0.995,	7.00
15:30:44.29,	-0.113,	-0.044,	-0.116,	-0.110,	0.730,	0.080,	0.053,	0.040,	0.079,	-0.995,	7.00
15:30:44.34,	-0.107,	-0.043,	-0.112,	-0.130,	0.680,	0.110,	0.052,	0.040,	0.082,	-0.994,	7.00
15:30:44.38,	-0.106,	-0.043,	-0.112,	-0.150,	0.680,	0.100,	0.051,	0.041,	0.085,	-0.994,	7.00
15:30:44.42,	-0.093,	-0.038,	-0.113,	-0.160,	0.660,	0.120,	0.050,	0.041,	0.087,	-0.994,	7.00
15:30:44.47,	-0.079,	-0.036,	-0.116,	-0.160,	0.630,	0.120,	0.049,	0.041,	0.090,	-0.994,	7.00
15:30:44.52,	-0.077,	-0.043,	-0.113,	-0.170,	0.600,	0.130,	0.048,	0.042,	0.092,	-0.994,	7.00
15:30:44.56,	-0.073,	-0.053,	-0.113,	-0.170,	0.580,	0.050,	0.047,	0.042,	0.095,	-0.993,	7.00
15:30:44.61,	-0.064,	-0.059,	-0.114,	-0.220,	0.550,	0.040,	0.046,	0.043,	0.098,	-0.993,	7.00
15:30:44.66,	-0.054,	-0.060,	-0.119,	-0.220,	0.510,	0.020,	0.045,	0.043,	0.100,	-0.993,	7.00
15:30:44.70,	-0.052,	-0.054,	-0.116,	-0.240,	0.490,	0.030,	0.044,	0.044,	0.103,	-0.993,	7.00
15:30:44.75,	-0.049,	-0.053,	-0.113,	-0.240,	0.490,	0.050,	0.043,	0.044,	0.106,	-0.992,	7.00
15:30:44.80,	-0.041,	-0.053,	-0.116,	-0.230,	0.460,	0.090,	0.042,	0.045,	0.108,	-0.992,	7.00
15:30:44.85,	-0.038,	-0.059,	-0.117,	-0.240,	0.430,	0.080,	0.041,	0.045,	0.111,	-0.992,	7.00
15:30:44.89,	-0.040,	-0.067,	-0.117,	-0.260,	0.410,	0.080,	0.040,	0.046,	0.113,	-0.992,	7.00
15:30:44.94,	-0.033,	-0.074,	-0.116,	-0.260,	0.400,	0.110,	0.039,	0.047,	0.116,	-0.991,	7.00
15:30:45.02,	-0.023,	-0.079,	-0.119,	-0.290,	0.350,	0.090,	0.038,	0.048,	0.120,	-0.991,	7.00
15:30:45.06,	-0.024,	-0.080,	-0.116,	-0.300,	0.320,	0.110,	0.037,	0.049,	0.123,	-0.991,	7.00
15:30:45.11,	-0.022,	-0.076,	-0.114,	-0.310,	0.320,	0.130,	0.036,	0.049,	0.125,	-0.990,	7.00
15:30:45.16,	-0.018,	-0.076,	-0.118,	-0.320,	0.290,	0.140,	0.035,	0.050,	0.128,	-0.990,	7.00
15:30:45.20,	-0.011,	-0.081,	-0.119,	-0.340,	0.250,	0.170,	0.034,	0.050,	0.131,	-0.990,	7.00
15:30:45.25,	-0.016,	-0.089,	-0.116,	-0.330,	0.250,	0.200,	0.034,	0.051,	0.133,	-0.989,	7.00
15:30:45.30,	-0.014,	-0.093,	-0.118,	-0.360,	0.230,	0.160,	0.033,	0.052,	0.136,	-0.989,	7.00
15:30:45.34,	-0.011,	-0.098,	-0.118,	-0.370,	0.190,	0.160,	0.032,	0.053,	0.138,	-0.989,	7.00
15:30:45.39,	-0.006,	-0.091,	-0.120,	-0.400,	0.180,	0.100,	0.032,	0.053,	0.141,	-0.988,	7.00
15:30:45.43,	-0.002,	-0.090,	-0.118,	-0.390,	0.170,	0.100,	0.031,	0.054,	0.143,	-0.988,	7.00
15:30:45.48,	0.001,	-0.082,	-0.121,	-0.420,	0.150,	0.110,	0.030,	0.054,	0.146,	-0.987,	7.00
15:30:45.52,	0.003,	-0.089,	-0.120,	-0.430,	0.140,	0.110,	0.029,	0.055,	0.149,	-0.987,	7.00
15:30:45.57,	0.003,	-0.090,	-0.120,	-0.420,	0.100,	0.120,	0.029,	0.055,	0.151,	-0.987,	7.00
15:30:45.62,	0.001,	-0.097,	-0.120,	-0.440,	0.110,	0.130,	0.028,	0.056,	0.154,	-0.986,	7.00
15:30:45.66,	0.008,	-0.099,	-0.124,	-0.450,	0.070,	0.110,	0.028,	0.056,	0.156,	-0.986,	7.00
15:30:45.71,	0.016,	-0.098,	-0.127,	-0.480,	0.060,	0.070,	0.027,	0.057,	0.159,	-0.985,	7.00
15:30:45.76,	0.016,	-0.087,	-0.124,	-0.490,	0.040,	0.050,	0.026,	0.057,	0.162,	-0.985,	7.00
15:30:45.80,	0.017,	-0.077,	-0.122,	-0.470,	0.060,	0.010,	0.025,	0.057,	0.164,	-0.984,	7.00
15:30:45.85,	0.022,	-0.077,	-0.126,	-0.480,	0.030,	-0.010,	0.025,	0.057,	0.167,	-0.984,	7.00
15:30:45.90,	0.029,	-0.079,	-0.127,	-0.480,	0.000,	-0.070,	0.024,	0.057,	0.165,	-0.984,	7.00
15:30:45.95,	0.031,	-0.082,	-0.131,	-0.480,	-0.020,	-0.080,	0.023,	0.057,	0.164,	-0.985,	7.00
15:30:45.99,	0.028,	-0.080,	-0.128,	-0.500,	-0.040,	-0.150,	0.022,	0.058,	0.163,	-0.985,	7.00
15:30:46.04,	0.029,	-0.077,	-0.126,	-0.480,	-0.040,	-0.170,	0.021,	0.058,	0.162,	-0.985,	7.00
15:30:46.08,	0.032,	-0.063,	-0.129,	-0.490,	-0.070,	-0.170,	0.020,	0.058,	0.161,	-0.985,	7.00
15:30:46.13,	0.043,	-0.059,	-0.129,	-0.500,	-0.060,	-0.230,	0.019,	0.058,	0.159,	-0.985,	7.00
15:30:46.17,	0.048,	-0.052,	-0.131,	-0.470,	-0.090,	-0.280,	0.018,	0.057,	0.158,	-0.986,	7.00
15:30:46.22,	0.042,	-0.046,	-0.131,	-0.510,	-0.110,	-0.300,	0.017,	0.057,	0.157,	-0.986,	7.00
15:30:46.27,	0.041,	-0.051,	-0.129,	-0.480,	-0.130,	-0.390,	0.016,	0.057,	0.154,	-0.986,	7.00
15:30:46.31,	0.052,	-0.044,	-0.132,	-0.500,	-0.160,	-0.410,	0.015,	0.057,	0.152,	-0.987,	7.00
15:30:46.36,	0.053,	-0.040,	-0.132,	-0.490,	-0.180,	-0.460,	0.014,	0.057,	0.150,	-0.987,	7.00
15:30:46.41,	0.038,	-0.033,	-0.129,	-0.480,	-0.210,	-0.490,	0.013,	0.056,	0.148,	-0.987,	7.00
15:30:46.46,	0.032,	-0.029,	-0.124,	-0.470,	-0.180,	-0.540,	0.013,	0.055,	0.150,	-0.987,	7.00
15:30:46.50,	0.053,	-0.026,	-0.129,	-0.450,	-0.180,	-0.640,	0.012,	0.055,	0.147,	-0.988,	7.00
15:30:46.55,	0.069,	-0.018,	-0.133,	-0.430,	-0.240,	-0.680,	0.011,	0.054,	0.145,	-0.988,	7.00
15:30:46.59,	0.043,	-0.008,	-0.128,	-0.430,	-0.270,	-0.780,	0.010,	0.052,	0.143,	-0.988,	7.00
15:30:46.64,	0.026,	-0.007,	-0.119,	-0.390,	-0.240,	-0.850,	0.010,	0.051,	0.139,	-0.989,	7.00
15:30:46.68,	0.032,	-0.017,	-0.121,	-0.390,	-0.210,	-0.910,	0.009,	0.051,	0.137,	-0.989,	7.00
15:30:46.73,	0.053,	-0.022,	-0.127,	-0.400,	-0.260,	-0.980,	0.009,	0.050,	0.134,	-0.990,	7.00
15:30:46.78,	0.050,	-0.008,	-0.128,	-0.370,	-0.260,	-1.020,	0.008,	0.049,	0.131,	-0.990,	7.00
15:30:46.82,	0.030,	0.003,	-0.119,	-0.350,	-0.270,	-1.060,	0.008,	0.048,	0.129,	-0.990,	7.00
15:30:46.87,	0.026,	0.012,	-0.116,	-0.340,	-0.230,	-1.120,	0.008,	0.047,	0.127,	-0.991,	7.00
15:30:46.92,	0.051,	0.007,	-0.122,	-0.320,	-0.260,	-1.160,	0.008,	0.046,	0.124,	-0.991,	7.00
15:30:46.96,	0.057,	-0.004,	-0.122,	-0.320,	-0.270,	-1.220,	0.007,	0.046,	0.121,	-0.992,	7.00
15:30:47.01,	0.024,	-0.006,	-0.113,	-0.320,	-0.300,	-1.290,	0.007,	0.045,	0.123,	-0.991,	7.00
15:30:47.06,	0.004,	-0.010,	-0.108,	-0.300,	-0.220,	-1.320,	0.008,	0.044,	0.120,	-0.992,	7.00
15:30:47.10,	0.030,	-0.007,	-0.114,	-0.290,	-0.220,	-1.380,	0.008,	0.044,	0.117,	-0.992,	7.00
15:30:47.15,	0.067,	0.001,	-0.121,	-0.270,	-0.240,	-1.370,	0.007,	0.043,	0.115,	-0.992,	7.00
15:30:47.20,	0.050,	0.002,	-0.116,	-0.270,	-0.290,	-1.360,	0.006,	0.042,	0.113,	-0.993,	7.00
15:30:47.25,	0.010,	0.001,	-0.107,	-0.260,	-0.260,	-1.390,	0.007,	0.042,	0.112,	-0.993,	7.00
15:30:47.29,	0.010,	-0.003,	-0.102,	-0.240,	-0.200,	-1.360,	0.007,	0.041,	0.109,	-0.993,	7.00
15:30:47.34,	0.056,	-0.009,	-0.113,	-0.230,	-0.210,	-1.370,	0.006,	0.041,	0.106,	-0.994,	7.00
15:30:47.39,	0.056,	-0.012,	-0.113,	-0.230,	-0.290,	-1.370,	0.006,	0.041,	0.104,	-0.994,	7.00
15:30:47.43,	0.028,	-0.013,	-0.107,	-0.230,	-0.270,	-1.430,	0.006,	0.041,	0.101,	-0.994,	7.00
15:30:47.48,	0.020,	-0.010,	-0.103,	-0.220,	-0.250,	-1.450,	0.006,	0.040,	0.099,	-0.994,	7.00
15:30:47.52,	0.042,	-0.008,	-0.109,	-0.230,	-0.250,	-1.430,	0.006,	0.040,	0.097,	-0.994,	7.00
15:30:47.57,	0.066,	-0.008,	-0.112,	-0.210,	-0.280,	-1.440,	0.005,	0.040,	0.096,	-0.995,	7.00
15:30:47.62,	0.051,	-0.008,	-0.108,	-0.200,	-0.300,	-1.390,	0.005,	0.039,	0.094,	-0.995,	7.00
15:30:47.66,	0.028,	-0.011,	-0.101,	-0.200,	-0.290,	-1.390,	0.005,	0.039,	0.096,	-0.995,	7.00
15:30:47.71,	0.034,	-0.011,	-0.102,	-0.190,	-0.240,	-1.370,	0.005,	0.039,	0.095,	-0.995,	7.00
15:30:47.76,	0.057,	-0.018,	-0.108,	-0.210,	-0.270,	-1.400,	0.004,	0.039,	0.093,	-0.995,	7.00
15:30:47.81,	0.058,	-0.016,	-0.106,	-0.210,	-0.300,	-1.420,	0.004,	0.039,	0.091,	-0.995,	7.00
15:30:47.85,	0.042,	-0.004,	-0.101,	-0.220,	-0.310,	-1.440,	0.003,	0.039,	0.089,	-0.995,	7.00
15:30:47.90,	0.043,	-0.001,	-0.100,	-0.200,	-0.280,	-1.490,	0.003,	0.039,	0.087,	-0.995,	7.00
15:30:47.94,	0.053,	-0.006,	-0.106,	-0.180,	-0.300,	-1.460,	0.003,	0.039,	0.085,	-0.996,	7.00
15:30:47.99,	0.061,	-0.011,	-0.102,	-0.190,	-0.330,	-1.440,	0.002,	0.039,	0.084,	-0.996,	7.00
15:30:48.04,	0.054,	-0.011,	-0.098,	-0.200,	-0.320,	-1.390,	0.002,	0.038,	0.083,	-0.996,	7.00
15:30:48.08,	0.044,	-0.004,	-0.097,	-0.180,	-0.330,	-1.360,	0.002,	0.038,	0.082,	-0.996,	7.00
15:30:48.13,	0.049,	-0.001,	-0.098,	-0.160,	-0.300,	-1.350,	0.002,	0.038,	0.081,	-0.996,	7.00
15:30:48.18,	0.068,	0.000,	-0.103,	-0.160,	-0.320,	-1.300,	0.001,	0.038,	0.078,	-0.996,	7.00
15:30:48.22,	0.073,	0.006,	-0.101,	-0.140,	-0.350,	-1.280,	0.000,	0.038,	0.077,	-0.996,	7.00
15:30:48.27,	0.064,	0.010,	-0.100,	-0.160,	-0.380,	-1.240,	0.000,	0.038,	0.079,	-0.996,	7.00
15:30:48.32,	0.051,	0.010,	-0.098,	-0.150,	-0.350,	-1.140,	0.000,	0.037,	0.078,	-0.996,	7.00
15:30:48.36,	0.056,	0.018,	-0.096,	-0.110,	-0.330,	-1.060,	-0.000,	0.037,	0.076,	-0.996,	7.00
15:30:48.41,	0.072,	0.022,	-0.101,	-0.070,	-0.370,	-0.970,	-0.001,	0.036,	0.076,	-0.996,	7.00
15:30:48.45,	0.076,	0.023,	-0.103,	-0.070,	-0.400,	-0.890,	-0.002,	0.036,	0.077,	-0.996,	7.00
15:30:48.50,	0.062,	0.027,	-0.098,	-0.030,	-0.390,	-0.820,	-0.002,	0.035,	0.076,	-0.996,	7.00
15:30:48.55,	0.064,	0.032,	-0.097,	-0.040,	-0.360,	-0.770,	-0.002,	0.034,	0.076,	-0.996,	7.00
15:30:48.59,	0.086,	0.042,	-0.102,	-0.010,	-0.410,	-0.700,	-0.003,	0.034,	0.075,	-0.997,	7.00
15:30:48.64,	0.081,	0.049,	-0.102,	0.010,	-0.440,	-0.620,	-0.004,	0.033,	0.076,	-0.997,	7.00
15:30:48.68,	0.059,	0.052,	-0.093,	0.040,	-0.430,	-0.580,	-0.004,	0.032,	0.076,	-0.997,	7.00
15:30:48.73,	0.058,	0.053,	-0.092,	0.050,	-0.420,	-0.510,	-0.004,	0.031,	0.075,	-0.997,	7.00
15:30:48.77,	0.077,	0.059,	-0.097,	0.090,	-0.430,	-0.460,	-0.005,	0.030,	0.075,	-0.997,	7.00
15:30:48.82,	0.074,	0.062,	-0.096,	0.120,	-0.450,	-0.420,	-0.005,	0.029,	0.075,	-0.997,	7.00
15:30:48.87,	0.054,	0.069,	-0.090,	0.140,	-0.430,	-0.410,	-0.005,	0.028,	0.075,	-0.997,	7.00
15:30:48.92,	0.059,	0.080,	-0.088,	0.150,	-0.420,	-0.390,	-0.005,	0.027,	0.077,	-0.997,	7.00
15:30:48.96,	0.061,	0.081,	-0.090,	0.170,	-0.410,	-0.410,	-0.004,	0.026,	0.078,	-0.997,	7.00
15:30:49.01,	0.050,	0.081,	-0.088,	0.200,	-0.410,	-0.410,	-0.004,	0.025,	0.079,	-0.997,	7.00
15:30:49.05,	0.041,	0.084,	-0.083,	0.220,	-0.390,	-0.390,	-0.003,	0.024,	0.081,	-0.996,	7.00
15:30:49.10,	0.046,	0.082,	-0.083,	0.230,	-0.380,	-0.400,	-0.003,	0.023,	0.081,	-0.996,	7.00
15:30:49.15,	0.046,	0.083,	-0.082,	0.260,	-0.380,	-0.380,	-0.003,	0.022,	0.081,	-0.996,	7.00
15:30:49.19,	0.044,	0.082,	-0.079,	0.240,	-0.380,	-0.370,	-0.002,	0.022,	0.082,	-0.996,	7.00
15:30:49.24,	0.044,	0.086,	-0.077,	0.250,	-0.380,	-0.370,	-0.002,	0.021,	0.084,	-0.996,	7.00
15:30:49.29,	0.046,	0.093,	-0.076,	0.270,	-0.350,	-0.380,	-0.001,	0.020,	0.085,	-0.996,	7.00
15:30:49.33,	0.036,	0.097,	-0.076,	0.310,	-0.330,	-0.340,	-0.001,	0.019,	0.086,	-0.996,	7.00
15:30:49.38,	0.033,	0.097,	-0.074,	0.330,	-0.340,	-0.340,	0.000,	0.018,	0.087,	-0.996,	7.00
15:30:49.43,	0.034,	0.082,	-0.072,	0.340,	-0.310,	-0.320,	0.001,	0.018,	0.089,	-0.996,	7.00
15:30:49.48,	0.031,	0.072,	-0.071,	0.340,	-0.300,	-0.310,	0.001,	0.018,	0.091,	-0.996,	7.00
15:30:49.52,	0.034,	0.080,	-0.072,	0.320,	-0.290,	-0.290,	0.002,	0.018,	0.093,	-0.996,	7.00
15:30:49.57,	0.042,	0.088,	-0.071,	0.350,	-0.280,	-0.270,	0.002,	0.017,	0.094,	-0.995,	7.00
15:30:49.62,	0.041,	0.097,	-0.070,	0.360,	-0.290,	-0.270,	0.002,	0.017,	0.096,	-0.995,	7.00
15:30:49.70,	0.037,	0.081,	-0.067,	0.380,	-0.270,	-0.220,	0.003,	0.016,	0.099,	-0.995,	7.00
15:30:49.74,	0.043,	0.071,	-0.068,	0.370,	-0.260,	-0.200,	0.003,	0.016,	0.101,	-0.995,	7.00
15:30:49.79,	0.046,	0.068,	-0.068,	0.400,	-0.250,	-0.150,	0.003,	0.016,	0.102,	-0.995,	7.00
15:30:49.83,	0.040,	0.068,	-0.064,	0.380,	-0.250,	-0.140,	0.004,	0.017,	0.105,	-0.994,	7.00
15:30:49.89,	0.052,	0.073,	-0.067,	0.360,	-0.260,	-0.120,	0.004,	0.017,	0.107,	-0.994,	7.00
15:30:49.93,	0.058,	0.078,	-0.069,	0.380,	-0.250,	-0.080,	0.003,	0.017,	0.110,	-0.994,	7.00
15:30:49.98,	0.058,	0.077,	-0.067,	0.400,	-0.270,	-0.090,	0.003,	0.017,	0.112,	-0.994,	7.00
15:30:50.02,	0.052,	0.073,	-0.064,	0.390,	-0.280,	-0.070,	0.003,	0.017,	0.115,	-0.993,	7.00
15:30:50.06,	0.056,	0.069,	-0.063,	0.390,	-0.260,	-0.080,	0.003,	0.017,	0.117,	-0.993,	7.00
15:30:50.11,	0.062,	0.060,	-0.063,	0.380,	-0.270,	0.000,	0.003,	0.017,	0.118,	-0.993,	7.00
15:30:50.15,	0.060,	0.054,	-0.063,	0.370,	-0.280,	-0.010,	0.003,	0.018,	0.119,	-0.993,	7.00
15:30:50.20,	0.063,	0.054,	-0.061,	0.360,	-0.300,	0.030,	0.003,	0.018,	0.120,	-0.993,	7.00
15:30:50.24,	0.069,	0.062,	-0.058,	0.380,	-0.270,	0.060,	0.002,	0.018,	0.122,	-0.992,	7.00
15:30:50.29,	0.069,	0.069,	-0.058,	0.390,	-0.300,	0.090,	0.002,	0.018,	0.123,	-0.992,	7.00
15:30:50.33,	0.063,	0.069,	-0.058,	0.390,	-0.290,	0.100,	0.002,	0.018,	0.124,	-0.992,	7.00
15:30:50.38,	0.061,	0.059,	-0.054,	0.370,	-0.320,	0.110,	0.002,	0.018,	0.125,	-0.992,	7.00
15:30:50.43,	0.063,	0.050,	-0.056,	0.370,	-0.330,	0.150,	0.002,	0.019,	0.126,	-0.992,	7.00
15:30:50.47,	0.060,	0.046,	-0.052,	0.370,	-0.310,	0.130,	0.002,	0.019,	0.127,	-0.992,	7.00
15:30:50.52,	0.063,	0.046,	-0.051,	0.340,	-0.300,	0.140,	0.002,	0.020,	0.128,	-0.992,	7.00
15:30:50.56,	0.063,	0.053,	-0.049,	0.350,	-0.320,	0.160,	0.002,	0.020,	0.134,	-0.991,	7.00
15:30:50.62,	0.061,	0.060,	-0.048,	0.350,	-0.330,	0.160,	0.002,	0.020,	0.138,	-0.990,	7.00
15:30:50.66,	0.057,	0.059,	-0.044,	0.340,	-0.320,	0.170,	0.002,	0.020,	0.141,	-0.990,	7.00
15:30:50.71,	0.052,	0.048,	-0.042,	0.350,	-0.320,	0.200,	0.002,	0.020,	0.146,	-0.989,	7.00
15:30:50.76,	0.047,	0.034,	-0.038,	0.360,	-0.320,	0.150,	0.002,	0.021,	0.149,	-0.989,	7.00
15:30:50.80,	0.044,	0.030,	-0.034,	0.340,	-0.310,	0.180,	0.002,	0.021,	0.151,	-0.988,	7.00
15:30:50.85,	0.046,	0.033,	-0.037,	0.320,	-0.300,	0.150,	0.003,	0.021,	0.153,	-0.988,	7.00
15:30:50.89,	0.048,	0.036,	-0.033,	0.300,	-0.300,	0.150,	0.003,	0.022,	0.156,	-0.987,	7.00
15:30:50.94,	0.046,	0.038,	-0.033,	0.310,	-0.300,	0.120,	0.003,	0.022,	0.161,	-0.987,	7.00
15:30:50.99,	0.036,	0.041,	-0.028,	0.300,	-0.300,	0.130,	0.003,	0.022,	0.162,	-0.987,	7.00
15:30:51.03,	0.036,	0.037,	-0.028,	0.300,	-0.300,	0.120,	0.004,	0.022,	0.163,	-0.986,	7.00
15:30:51.08,	0.033,	0.026,	-0.022,	0.290,	-0.300,	0.140,	0.004,	0.023,	0.166,	-0.986,	7.00
15:30:51.13,	0.028,	0.016,	-0.022,	0.260,	-0.290,	0.100,	0.004,	0.023,	0.169,	-0.985,	7.00
15:30:51.17,	0.027,	0.009,	-0.021,	0.260,	-0.270,	0.080,	0.005,	0.024,	0.172,	-0.985,	7.00
15:30:51.21,	0.034,	0.011,	-0.022,	0.240,	-0.280,	0.070,	0.005,	0.024,	0.175,	-0.984,	7.00
15:30:51.26,	0.032,	0.014,	-0.019,	0.240,	-0.300,	0.070,	0.005,	0.025,	0.177,	-0.984,	7.00
15:30:51.30,	0.029,	0.018,	-0.016,	0.240,	-0.280,	0.070,	0.006,	0.025,	0.180,	-0.983,	7.00
15:30:51.35,	0.024,	0.013,	-0.013,	0.240,	-0.270,	0.080,	0.006,	0.025,	0.181,	-0.983,	7.00
15:30:51.39,	0.020,	0.000,	-0.012,	0.190,	-0.260,	0.050,	0.006,	0.026,	0.184,	-0.983,	7.00
15:30:51.44,	0.024,	-0.007,	-0.009,	0.200,	-0.250,	0.060,	0.007,	0.026,	0.185,	-0.982,	7.00
15:30:51.49,	0.028,	-0.016,	-0.012,	0.190,	-0.260,	0.060,	0.007,	0.027,	0.186,	-0.982,	7.00
15:30:51.53,	0.032,	-0.018,	-0.010,	0.170,	-0.260,	0.020,	0.007,	0.028,	0.186,	-0.982,	7.00
15:30:51.58,	0.031,	-0.010,	-0.009,	0.150,	-0.240,	0.000,	0.007,	0.028,	0.187,	-0.982,	7.00
15:30:51.63,	0.034,	-0.008,	-0.008,	0.160,	-0.270,	0.000,	0.007,	0.029,	0.188,	-0.982,	7.00
15:30:51.68,	0.036,	-0.009,	-0.004,	0.150,	-0.260,	-0.040,	0.007,	0.029,	0.190,	-0.981,	7.00
15:30:51.72,	0.034,	-0.019,	-0.004,	0.120,	-0.260,	-0.060,	0.007,	0.030,	0.190,	-0.981,	7.00
15:30:51.77,	0.034,	-0.030,	-0.001,	0.120,	-0.270,	-0.100,	0.007,	0.030,	0.191,	-0.981,	7.00
15:30:51.81,	0.041,	-0.032,	-0.001,	0.060,	-0.290,	-0.140,	0.006,	0.031,	0.192,	-0.981,	7.00
15:30:51.86,	0.054,	-0.030,	-0.006,	0.070,	-0.290,	-0.170,	0.006,	0.032,	0.193,	-0.981,	7.00
15:30:51.91,	0.057,	-0.028,	-0.004,	0.050,	-0.300,	-0.200,	0.006,	0.033,	0.193,	-0.981,	7.00
15:30:51.95,	0.058,	-0.021,	0.000,	0.020,	-0.290,	-0.270,	0.005,	0.034,	0.195,	-0.980,	7.00
15:30:52.00,	0.064,	-0.021,	-0.001,	0.030,	-0.320,	-0.310,	0.005,	0.035,	0.195,	-0.980,	7.00
15:30:52.04,	0.070,	-0.027,	-0.002,	0.000,	-0.310,	-0.350,	0.005,	0.035,	0.195,	-0.980,	7.00
15:30:52.09,	0.070,	-0.034,	-0.001,	0.000,	-0.360,	-0.400,	0.004,	0.036,	0.194,	-0.980,	7.00
15:30:52.13,	0.073,	-0.042,	0.000,	-0.050,	-0.360,	-0.440,	0.004,	0.037,	0.194,	-0.980,	7.00
15:30:52.19,	0.089,	-0.041,	-0.006,	-0.060,	-0.380,	-0.500,	0.003,	0.038,	0.194,	-0.980,	7.00
15:30:52.23,	0.102,	-0.032,	-0.004,	-0.080,	-0.380,	-0.560,	0.002,	0.039,	0.194,	-0.980,	7.00
15:30:52.27,	0.106,	-0.021,	-0.003,	-0.110,	-0.410,	-0.620,	0.002,	0.039,	0.194,	-0.980,	7.00
15:30:52.32,	0.102,	-0.026,	0.000,	-0.090,	-0.400,	-0.660,	0.001,	0.040,	0.194,	-0.980,	7.00
15:30:52.37,	0.111,	-0.046,	0.000,	-0.100,	-0.420,	-0.740,	0.000,	0.041,	0.194,	-0.980,	7.00
15:30:52.41,	0.114,	-0.046,	-0.002,	-0.150,	-0.440,	-0.790,	0.000,	0.041,	0.193,	-0.980,	7.00
15:30:52.46,	0.117,	-0.034,	-0.002,	-0.170,	-0.450,	-0.870,	-0.000,	0.042,	0.193,	-0.980,	7.00
15:30:52.50,	0.124,	-0.028,	-0.002,	-0.170,	-0.450,	-0.900,	-0.001,	0.042,	0.193,	-0.980,	7.00
15:30:52.55,	0.137,	-0.027,	-0.002,	-0.180,	-0.440,	-0.930,	-0.002,	0.042,	0.193,	-0.980,	7.00
15:30:52.59,	0.144,	-0.029,	-0.001,	-0.160,	-0.480,	-0.970,	-0.003,	0.043,	0.193,	-0.980,	7.00
15:30:52.64,	0.140,	-0.026,	0.002,	-0.190,	-0.500,	-1.020,	-0.003,	0.043,	0.193,	-0.980,	7.00
15:30:52.69,	0.132,	-0.026,	0.006,	-0.180,	-0.500,	-1.080,	-0.004,	0.043,	0.192,	-0.980,	7.00
15:30:52.74,	0.137,	-0.022,	0.008,	-0.210,	-0.490,	-1.170,	-0.004,	0.043,	0.192,	-0.980,	7.00
15:30:52.78,	0.139,	-0.023,	0.008,	-0.210,	-0.520,	-1.210,	-0.004,	0.043,	0.192,	-0.980,	7.00
15:30:52.83,	0.139,	-0.026,	0.009,	-0.200,	-0.520,	-1.310,	-0.005,	0.043,	0.192,	-0.981,	7.00
15:30:52.88,	0.139,	-0.032,	0.011,	-0.220,	-0.520,	-1.370,	-0.005,	0.043,	0.191,	-0.981,	7.00
15:30:52.92,	0.146,	-0.030,	0.011,	-0.250,	-0.520,	-1.460,	-0.005,	0.043,	0.191,	-0.981,	7.00
15:30:52.97,	0.144,	-0.014,	0.013,	-0.230,	-0.530,	-1.520,	-0.005,	0.042,	0.190,	-0.981,	7.00
15:30:53.01,	0.133,	-0.002,	0.023,	-0.230,	-0.540,	-1.520,	-0.005,	0.042,	0.190,	-0.981,	7.00
15:30:53.06,	0.118,	-0.014,	0.027,	-0.210,	-0.540,	-1.550,	-0.005,	0.041,	0.189,	-0.981,	7.00
15:30:53.10,	0.111,	-0.033,	0.031,	-0.210,	-0.520,	-1.590,	-0.004,	0.041,	0.188,	-0.981,	7.00
15:30:53.15,	0.111,	-0.041,	0.029,	-0.240,	-0.520,	-1.650,	-0.004,	0.042,	0.187,	-0.981,	7.00
15:30:53.20,	0.110,	-0.039,	0.029,	-0.260,	-0.510,	-1.680,	-0.003,	0.042,	0.186,	-0.982,	7.00
15:30:53.25,	0.099,	-0.030,	0.031,	-0.270,	-0.470,	-1.720,	-0.003,	0.042,	0.185,	-0.982,	7.00
15:30:53.30,	0.092,	-0.021,	0.034,	-0.250,	-0.480,	-1.760,	-0.003,	0.041,	0.180,	-0.983,	7.00
15:30:53.34,	0.086,	-0.020,	0.039,	-0.250,	-0.460,	-1.790,	-0.002,	0.041,	0.176,	-0.984,	7.00
15:30:53.38,	0.071,	-0.027,	0.043,	-0.230,	-0.450,	-1.800,	-0.001,	0.041,	0.171,	-0.984,	7.00
15:30:53.43,	0.057,	-0.037,	0.048,	-0.240,	-0.440,	-1.790,	-0.001,	0.041,	0.166,	-0.985,	7.00
15:30:53.48,	0.042,	-0.044,	0.054,	-0.240,	-0.390,	-1.770,	0.000,	0.041,	0.162,	-0.986,	7.00
15:30:53.52,	0.037,	-0.052,	0.058,	-0.260,	-0.360,	-1.750,	0.001,	0.041,	0.159,	-0.986,	7.00
15:30:53.57,	0.033,	-0.042,	0.062,	-0.230,	-0.360,	-1.730,	0.002,	0.042,	0.156,	-0.987,	7.00
15:30:53.61,	0.031,	-0.033,	0.063,	-0.250,	-0.350,	-1.730,	0.003,	0.042,	0.153,	-0.987,	7.00
15:30:53.66,	0.017,	-0.038,	0.072,	-0.280,	-0.310,	-1.740,	0.004,	0.042,	0.149,	-0.988,	7.00
15:30:53.70,	0.004,	-0.040,	0.078,	-0.270,	-0.290,	-1.740,	0.005,	0.042,	0.144,	-0.989,	7.00
15:30:53.75,	-0.016,	-0.036,	0.082,	-0.300,	-0.280,	-1.730,	0.007,	0.042,	0.143,	-0.989,	7.00
15:30:53.79,	-0.022,	-0.030,	0.088,	-0.300,	-0.230,	-1.720,	0.008,	0.042,	0.138,	-0.989,	7.00
15:30:53.84,	-0.031,	-0.030,	0.091,	-0.290,	-0.200,	-1.710,	0.010,	0.042,	0.135,	-0.990,	7.00
15:30:53.88,	-0.038,	-0.040,	0.096,	-0.270,	-0.180,	-1.680,	0.011,	0.042,	0.132,	-0.990,	7.00
15:30:53.93,	-0.041,	-0.058,	0.100,	-0.320,	-0.130,	-1.670,	0.013,	0.043,	0.127,	-0.991,	7.00
15:30:53.98,	-0.043,	-0.052,	0.101,	-0.340,	-0.110,	-1.640,	0.014,	0.043,	0.124,	-0.991,	7.00
15:30:54.02,	-0.051,	-0.036,	0.101,	-0.340,	-0.080,	-1.620,	0.015,	0.043,	0.120,	-0.992,	7.00
15:30:54.07,	-0.070,	-0.018,	0.110,	-0.320,	-0.060,	-1.660,	0.017,	0.043,	0.117,	-0.992,	7.00
15:30:54.11,	-0.087,	-0.013,	0.113,	-0.300,	0.000,	-1.610,	0.020,	0.043,	0.114,	-0.992,	7.00
15:30:54.16,	-0.090,	-0.026,	0.117,	-0.320,	0.040,	-1.560,	0.021,	0.043,	0.111,	-0.993,	7.00
15:30:54.21,	-0.088,	-0.037,	0.117,	-0.310,	0.080,	-1.500,	0.024,	0.043,	0.108,	-0.993,	7.00
15:30:54.25,	-0.098,	-0.042,	0.121,	-0.320,	0.110,	-1.430,	0.026,	0.043,	0.105,	-0.993,	7.00
15:30:54.34,	-0.112,	-0.027,	0.128,	-0.300,	0.230,	-1.340,	0.030,	0.043,	0.100,	-0.994,	7.00
15:30:54.38,	-0.103,	-0.016,	0.126,	-0.290,	0.260,	-1.300,	0.031,	0.042,	0.098,	-0.994,	7.00
15:30:54.43,	-0.110,	-0.019,	0.131,	-0.290,	0.290,	-1.290,	0.034,	0.042,	0.095,	-0.994,	7.00
15:30:54.48,	-0.129,	-0.019,	0.138,	-0.300,	0.330,	-1.270,	0.035,	0.042,	0.092,	-0.994,	7.00
15:30:54.53,	-0.142,	-0.012,	0.141,	-0.280,	0.390,	-1.230,	0.038,	0.041,	0.089,	-0.995,	7.00
15:30:54.58,	-0.140,	-0.008,	0.143,	-0.240,	0.430,	-1.100,	0.040,	0.040,	0.086,	-0.995,	7.00
15:30:54.62,	-0.138,	-0.019,	0.143,	-0.200,	0.460,	-1.030,	0.042,	0.040,	0.083,	-0.995,	7.00
15:30:54.67,	-0.142,	-0.028,	0.146,	-0.200,	0.510,	-0.870,	0.044,	0.039,	0.079,	-0.995,	7.00
15:30:54.72,	-0.144,	-0.027,	0.149,	-0.200,	0.520,	-0.790,	0.045,	0.039,	0.077,	-0.995,	7.00
15:30:54.76,	-0.141,	-0.016,	0.149,	-0.200,	0.570,	-0.740,	0.046,	0.039,	0.073,	-0.995,	7.00
15:30:54.81,	-0.142,	0.003,	0.152,	-0.170,	0.590,	-0.760,	0.047,	0.038,	0.070,	-0.996,	7.00
15:30:54.86,	-0.153,	0.010,	0.158,	-0.140,	0.610,	-0.750,	0.049,	0.037,	0.067,	-0.996,	7.00
15:30:54.90,	-0.166,	-0.009,	0.162,	-0.110,	0.640,	-0.730,	0.050,	0.037,	0.064,	-0.996,	7.00
15:30:54.96,	-0.174,	-0.026,	0.164,	-0.120,	0.690,	-0.650,	0.051,	0.037,	0.060,	-0.996,	7.00
15:30:55.00,	-0.170,	-0.034,	0.167,	-0.120,	0.720,	-0.540,	0.052,	0.037,	0.057,	-0.996,	7.00
15:30:55.04,	-0.166,	-0.018,	0.169,	-0.110,	0.720,	-0.440,	0.053,	0.037,	0.053,	-0.997,	7.00
15:30:55.09,	-0.170,	-0.003,	0.169,	-0.070,	0.720,	-0.290,	0.054,	0.036,	0.049,	-0.997,	7.00
15:30:55.14,	-0.183,	0.003,	0.180,	-0.060,	0.750,	-0.220,	0.054,	0.036,	0.046,	-0.997,	7.00
15:30:55.18,	-0.193,	-0.007,	0.184,	-0.030,	0.780,	-0.200,	0.055,	0.036,	0.042,	-0.997,	7.00
15:30:55.23,	-0.196,	-0.019,	0.184,	-0.030,	0.770,	-0.210,	0.056,	0.036,	0.039,	-0.997,	7.00
15:30:55.27,	-0.200,	-0.024,	0.187,	-0.030,	0.780,	-0.170,	0.056,	0.036,	0.035,	-0.997,	7.00
15:30:55.32,	-0.217,	-0.022,	0.193,	-0.030,	0.810,	-0.130,	0.057,	0.036,	0.031,	-0.997,	7.00
15:30:55.37,	-0.220,	-0.013,	0.199,	-0.040,	0.850,	-0.060,	0.058,	0.036,	0.027,	-0.997,	7.00
15:30:55.41,	-0.222,	-0.012,	0.198,	-0.010,	0.840,	0.000,	0.058,	0.036,	0.023,	-0.997,	7.00
15:30:55.46,	-0.224,	-0.012,	0.202,	0.000,	0.840,	0.110,	0.058,	0.036,	0.018,	-0.997,	7.00
15:30:55.51,	-0.239,	-0.011,	0.212,	0.010,	0.850,	0.160,	0.059,	0.036,	0.015,	-0.997,	7.00
15:30:55.56,	-0.251,	-0.007,	0.216,	0.050,	0.880,	0.230,	0.060,	0.036,	0.010,	-0.998,	7.00
15:30:55.60,	-0.260,	-0.003,	0.220,	0.050,	0.910,	0.270,	0.060,	0.036,	0.006,	-0.998,	7.00
15:30:55.65,	-0.261,	-0.010,	0.223,	0.050,	0.920,	0.300,	0.061,	0.035,	0.001,	-0.997,	7.00
15:30:55.69,	-0.261,	-0.020,	0.226,	0.050,	0.920,	0.330,	0.061,	0.036,	-0.004,	-0.997,	7.00
15:30:55.75,	-0.273,	-0.014,	0.231,	0.040,	0.930,	0.410,	0.062,	0.036,	-0.009,	-0.997,	7.00
15:30:55.79,	-0.287,	0.007,	0.239,	0.070,	0.970,	0.490,	0.062,	0.036,	-0.013,	-0.997,	7.00
15:30:55.84,	-0.282,	0.022,	0.240,	0.080,	0.970,	0.540,	0.063,	0.035,	-0.018,	-0.997,	7.00
15:30:55.88,	-0.279,	0.021,	0.241,	0.120,	0.960,	0.580,	0.063,	0.035,	-0.022,	-0.997,	7.00
15:30:55.93,	-0.290,	0.002,	0.247,	0.140,	1.010,	0.600,	0.063,	0.035,	-0.028,	-0.997,	7.00
15:30:55.97,	-0.289,	-0.006,	0.250,	0.100,	1.000,	0.640,	0.063,	0.035,	-0.032,	-0.997,	7.00
15:30:56.02,	-0.289,	0.011,	0.254,	0.120,	1.010,	0.620,	0.063,	0.036,	-0.037,	-0.997,	7.00
15:30:56.07,	-0.290,	0.030,	0.257,	0.140,	1.000,	0.610,	0.063,	0.035,	-0.043,	-0.996,	7.00
15:30:56.11,	-0.286,	0.043,	0.259,	0.160,	1.000,	0.610,	0.063,	0.035,	-0.047,	-0.996,	7.00
15:30:56.16,	-0.273,	0.041,	0.257,	0.200,	0.990,	0.640,	0.063,	0.034,	-0.053,	-0.996,	7.00
15:30:56.21,	-0.271,	0.030,	0.260,	0.190,	0.990,	0.690,	0.062,	0.034,	-0.058,	-0.996,	7.00
15:30:56.25,	-0.278,	0.030,	0.264,	0.200,	1.020,	0.700,	0.062,	0.034,	-0.063,	-0.995,	7.00
15:30:56.29,	-0.268,	0.039,	0.269,	0.210,	1.010,	0.720,	0.062,	0.034,	-0.068,	-0.995,	7.00
15:30:56.34,	-0.250,	0.043,	0.263,	0.220,	0.990,	0.710,	0.061,	0.034,	-0.074,	-0.995,	7.00
15:30:56.39,	-0.239,	0.049,	0.266,	0.250,	0.960,	0.670,	0.060,	0.033,	-0.078,	-0.995,	7.00
15:30:56.43,	-0.238,	0.048,	0.266,	0.240,	0.960,	0.620,	0.059,	0.033,	-0.084,	-0.994,	7.00
15:30:56.48,	-0.226,	0.051,	0.264,	0.230,	0.940,	0.560,	0.059,	0.033,	-0.089,	-0.994,	7.00
15:30:56.52,	-0.207,	0.059,	0.264,	0.240,	0.930,	0.500,	0.057,	0.032,	-0.094,	-0.993,	7.00
15:30:56.57,	-0.196,	0.059,	0.263,	0.280,	0.920,	0.470,	0.056,	0.032,	-0.100,	-0.993,	7.00
15:30:56.61,	-0.189,	0.053,	0.264,	0.290,	0.890,	0.480,	0.055,	0.032,	-0.105,	-0.992,	7.00
15:30:56.66,	-0.179,	0.046,	0.268,	0.280,	0.860,	0.500,	0.054,	0.032,	-0.109,	-0.992,	7.00
15:30:56.70,	-0.162,	0.041,	0.262,	0.290,	0.850,	0.470,	0.053,	0.032,	-0.115,	-0.991,	7.00
15:30:56.75,	-0.146,	0.049,	0.261,	0.270,	0.830,	0.450,	0.051,	0.032,	-0.120,	-0.991,	7.00
15:30:56.80,	-0.121,	0.058,	0.260,	0.260,	0.790,	0.450,	0.050,	0.031,	-0.126,	-0.990,	7.00
15:30:56.84,	-0.114,	0.057,	0.260,	0.280,	0.750,	0.380,	0.048,	0.031,	-0.128,	-0.990,	7.00
15:30:56.89,	-0.106,	0.043,	0.262,	0.300,	0.730,	0.380,	0.047,	0.031,	-0.129,	-0.990,	7.00
15:30:56.93,	-0.093,	0.030,	0.259,	0.290,	0.700,	0.340,	0.045,	0.031,	-0.134,	-0.990,	7.00
15:30:56.98,	-0.070,	0.022,	0.259,	0.270,	0.670,	0.380,	0.044,	0.031,	-0.135,	-0.989,	7.00
15:30:57.02,	-0.063,	0.020,	0.259,	0.280,	0.640,	0.410,	0.042,	0.031,	-0.139,	-0.989,	7.00
15:30:57.07,	-0.061,	0.024,	0.259,	0.290,	0.630,	0.400,	0.041,	0.031,	-0.144,	-0.988,	7.00
15:30:57.11,	-0.040,	0.023,	0.259,	0.280,	0.610,	0.390,	0.039,	0.031,	-0.145,	-0.988,	7.00
15:30:57.15,	-0.020,	0.014,	0.257,	0.280,	0.540,	0.390,	0.037,	0.031,	-0.148,	-0.988,	7.00
15:30:57.20,	-0.021,	0.002,	0.258,	0.260,	0.530,	0.340,	0.036,	0.032,	-0.150,	-0.988,	7.00
15:30:57.24,	-0.023,	-0.008,	0.261,	0.250,	0.500,	0.300,	0.035,	0.032,	-0.154,	-0.987,	7.00
15:30:57.29,	-0.010,	-0.009,	0.262,	0.230,	0.480,	0.220,	0.033,	0.033,	-0.156,	-0.987,	7.00
15:30:57.34,	0.006,	-0.012,	0.262,	0.210,	0.460,	0.220,	0.032,	0.033,	-0.159,	-0.986,	7.00
15:30:57.38,	0.010,	-0.021,	0.264,	0.200,	0.410,	0.220,	0.031,	0.034,	-0.162,	-0.986,	7.00
15:30:57.42,	0.008,	-0.024,	0.266,	0.190,	0.390,	0.200,	0.029,	0.034,	-0.164,	-0.985,	7.00
15:30:57.47,	0.017,	-0.032,	0.266,	0.180,	0.390,	0.190,	0.028,	0.035,	-0.169,	-0.985,	7.00
15:30:57.51,	0.020,	-0.033,	0.266,	0.160,	0.360,	0.150,	0.027,	0.035,	-0.171,	-0.984,	7.00
15:30:57.56,	0.018,	-0.041,	0.269,	0.140,	0.340,	0.070,	0.026,	0.036,	-0.174,	-0.984,	7.00
15:30:57.61,	0.019,	-0.048,	0.273,	0.110,	0.320,	0.000,	0.025,	0.037,	-0.178,	-0.983,	7.00
15:30:57.65,	0.013,	-0.053,	0.276,	0.080,	0.320,	-0.060,	0.024,	0.038,	-0.181,	-0.982,	7.00
15:30:57.70,	0.017,	-0.056,	0.280,	0.050,	0.310,	-0.120,	0.023,	0.039,	-0.185,	-0.982,	7.00
15:30:57.75,	0.022,	-0.052,	0.278,	0.030,	0.280,	-0.130,	0.022,	0.040,	-0.188,	-0.981,	7.00
15:30:57.79,	0.020,	-0.047,	0.281,	0.020,	0.270,	-0.140,	0.021,	0.041,	-0.193,	-0.980,	7.00
15:30:57.84,	0.018,	-0.049,	0.286,	0.000,	0.250,	-0.150,	0.020,	0.041,	-0.198,	-0.979,	7.00
15:30:57.88,	0.014,	-0.054,	0.287,	-0.030,	0.250,	-0.130,	0.020,	0.042,	-0.201,	-0.979,	7.00
15:30:57.93,	0.014,	-0.053,	0.288,	-0.020,	0.250,	-0.160,	0.019,	0.043,	-0.206,	-0.977,	7.00
15:30:57.98,	0.013,	-0.052,	0.293,	-0.070,	0.250,	-0.200,	0.018,	0.044,	-0.210,	-0.977,	7.00
15:30:58.03,	0.012,	-0.046,	0.296,	-0.070,	0.250,	-0.280,	0.018,	0.044,	-0.214,	-0.976,	7.00
15:30:58.07,	0.014,	-0.041,	0.298,	-0.070,	0.260,	-0.310,	0.017,	0.045,	-0.220,	-0.974,	7.00
15:30:58.12,	0.019,	-0.038,	0.294,	-0.090,	0.220,	-0.350,	0.016,	0.045,	-0.224,	-0.973,	7.00
15:30:58.17,	0.019,	-0.041,	0.300,	-0.120,	0.210,	-0.350,	0.016,	0.046,	-0.225,	-0.973,	7.00
15:30:58.22,	0.018,	-0.040,	0.301,	-0.120,	0.230,	-0.320,	0.015,	0.046,	-0.230,	-0.972,	7.00
15:30:58.27,	0.021,	-0.030,	0.306,	-0.130,	0.210,	-0.300,	0.015,	0.046,	-0.234,	-0.971,	7.00
15:30:58.31,	0.020,	-0.022,	0.306,	-0.110,	0.210,	-0.340,	0.014,	0.046,	-0.238,	-0.970,	7.00
15:30:58.36,	0.022,	-0.019,	0.308,	-0.120,	0.190,	-0.430,	0.014,	0.046,	-0.241,	-0.969,	7.00
15:30:58.40,	0.037,	-0.024,	0.307,	-0.120,	0.200,	-0.490,	0.013,	0.046,	-0.245,	-0.968,	7.00
15:30:58.45,	0.048,	-0.026,	0.304,	-0.150,	0.170,	-0.640,	0.012,	0.046,	-0.248,	-0.968,	7.00
15:30:58.49,	0.053,	-0.023,	0.304,	-0.160,	0.150,	-0.710,	0.011,	0.046,	-0.253,	-0.966,	7.00
15:30:58.54,	0.050,	-0.018,	0.306,	-0.180,	0.140,	-0.780,	0.011,	0.046,	-0.256,	-0.966,	7.00
15:30:58.59,	0.053,	-0.014,	0.307,	-0.160,	0.140,	-0.800,	0.010,	0.045,	-0.261,	-0.964,	7.00
15:30:58.63,	0.056,	-0.014,	0.307,	-0.160,	0.120,	-0.790,	0.009,	0.045,	-0.267,	-0.963,	7.00
15:30:58.68,	0.062,	-0.018,	0.308,	-0.160,	0.120,	-0.810,	0.008,	0.045,	-0.273,	-0.961,	7.00
15:30:58.72,	0.070,	-0.022,	0.307,	-0.170,	0.070,	-0.890,	0.006,	0.045,	-0.276,	-0.960,	7.00
15:30:58.77,	0.087,	-0.022,	0.304,	-0.190,	0.050,	-0.960,	0.005,	0.045,	-0.281,	-0.958,	7.00
15:30:58.81,	0.091,	-0.022,	0.301,	-0.200,	0.040,	-1.120,	0.003,	0.044,	-0.287,	-0.957,	7.00
15:30:58.86,	0.099,	-0.037,	0.303,	-0.200,	-0.010,	-1.260,	0.001,	0.044,	-0.291,	-0.956,	7.00
15:30:58.91,	0.102,	-0.039,	0.301,	-0.240,	-0.030,	-1.340,	-0.001,	0.044,	-0.294,	-0.955,	7.00
15:30:58.99,	0.104,	-0.041,	0.304,	-0.280,	-0.070,	-1.390,	-0.004,	0.044,	-0.302,	-0.952,	7.00
15:30:59.03,	0.118,	-0.043,	0.301,	-0.260,	-0.110,	-1.380,	-0.006,	0.044,	-0.306,	-0.951,	7.00
15:30:59.08,	0.136,	-0.054,	0.294,	-0.260,	-0.160,	-1.360,	-0.008,	0.045,	-0.311,	-0.949,	7.00
15:30:59.13,	0.143,	-0.072,	0.297,	-0.290,	-0.220,	-1.360,	-0.011,	0.045,	-0.317,	-0.947,	7.00
15:30:59.18,	0.137,	-0.087,	0.298,	-0.320,	-0.230,	-1.390,	-0.013,	0.046,	-0.322,	-0.945,	7.00
15:30:59.22,	0.139,	-0.093,	0.298,	-0.390,	-0.260,	-1.440,	-0.015,	0.046,	-0.326,	-0.944,	7.00
15:30:59.27,	0.153,	-0.098,	0.294,	-0.400,	-0.310,	-1.500,	-0.017,	0.047,	-0.330,	-0.943,	7.00
15:30:59.32,	0.159,	-0.092,	0.294,	-0.420,	-0.340,	-1.520,	-0.020,	0.047,	-0.336,	-0.941,	7.00
15:30:59.36,	0.152,	-0.098,	0.299,	-0.430,	-0.370,	-1.520,	-0.021,	0.048,	-0.339,	-0.939,	7.00
15:30:59.41,	0.156,	-0.119,	0.298,	-0.450,	-0.370,	-1.470,	-0.023,	0.048,	-0.345,	-0.937,	7.00
15:30:59.46,	0.171,	-0.138,	0.296,	-0.470,	-0.410,	-1.400,	-0.026,	0.050,	-0.348,	-0.936,	7.00
15:30:59.50,	0.179,	-0.149,	0.292,	-0.540,	-0.460,	-1.370,	-0.027,	0.050,	-0.351,	-0.935,	7.00
15:30:59.55,	0.168,	-0.144,	0.297,	-0.580,	-0.460,	-1.360,	-0.029,	0.051,	-0.355,	-0.933,	7.00
15:30:59.60,	0.160,	-0.140,	0.299,	-0.590,	-0.470,	-1.410,	-0.029,	0.052,	-0.357,	-0.932,	7.00
15:30:59.64,	0.173,	-0.143,	0.297,	-0.610,	-0.480,	-1.380,	-0.031,	0.053,	-0.360,	-0.931,	7.00
15:30:59.69,	0.179,	-0.149,	0.294,	-0.610,	-0.500,	-1.420,	-0.032,	0.053,	-0.364,	-0.929,	7.00
15:30:59.74,	0.170,	-0.154,	0.297,	-0.640,	-0.520,	-1.380,	-0.033,	0.054,	-0.368,	-0.928,	7.00
15:30:59.78,	0.166,	-0.166,	0.301,	-0.640,	-0.510,	-1.320,	-0.034,	0.055,	-0.374,	-0.925,	7.00
15:30:59.83,	0.176,	-0.171,	0.297,	-0.660,	-0.530,	-1.250,	-0.034,	0.056,	-0.377,	-0.924,	7.00
15:30:59.88,	0.181,	-0.174,	0.294,	-0.710,	-0.520,	-1.170,	-0.035,	0.056,	-0.379,	-0.923,	7.00
15:30:59.93,	0.173,	-0.162,	0.300,	-0.690,	-0.530,	-1.110,	-0.035,	0.057,	-0.384,	-0.921,	7.00
15:30:59.98,	0.162,	-0.160,	0.304,	-0.680,	-0.510,	-1.060,	-0.036,	0.057,	-0.387,	-0.919,	7.00
15:31:00.03,	0.161,	-0.161,	0.303,	-0.710,	-0.490,	-1.010,	-0.036,	0.057,	-0.391,	-0.918,	7.00
15:31:00.08,	0.168,	-0.154,	0.303,	-0.700,	-0.500,	-0.980,	-0.036,	0.057,	-0.392,	-0.917,	7.00
15:31:00.13,	0.161,	-0.151,	0.304,	-0.690,	-0.520,	-0.930,	-0.036,	0.058,	-0.396,	-0.916,	7.00
15:31:00.17,	0.149,	-0.151,	0.309,	-0.690,	-0.490,	-0.880,	-0.036,	0.058,	-0.398,	-0.915,	7.00
15:31:00.22,	0.148,	-0.152,	0.309,	-0.710,	-0.470,	-0.830,	-0.035,	0.058,	-0.399,	-0.914,	7.00
15:31:00.26,	0.153,	-0.137,	0.309,	-0.690,	-0.470,	-0.730,	-0.035,	0.058,	-0.403,	-0.913,	7.00
15:31:00.31,	0.150,	-0.122,	0.313,	-0.680,	-0.490,	-0.700,	-0.035,	0.057,	-0.405,	-0.912,	7.00
15:31:00.36,	0.136,	-0.112,	0.314,	-0.680,	-0.490,	-0.670,	-0.035,	0.057,	-0.411,	-0.909,	7.00
15:31:00.40,	0.134,	-0.100,	0.316,	-0.680,	-0.440,	-0.670,	-0.034,	0.056,	-0.415,	-0.907,	7.00
15:31:00.45,	0.138,	-0.092,	0.318,	-0.640,	-0.460,	-0.690,	-0.034,	0.056,	-0.418,	-0.906,	7.00
15:31:00.49,	0.137,	-0.089,	0.319,	-0.600,	-0.440,	-0.640,	-0.034,	0.055,	-0.423,	-0.904,	7.00
15:31:00.54,	0.129,	-0.094,	0.324,	-0.610,	-0.420,	-0.600,	-0.034,	0.055,	-0.429,	-0.901,	7.00
15:31:00.59,	0.129,	-0.086,	0.323,	-0.620,	-0.440,	-0.570,	-0.034,	0.054,	-0.432,	-0.900,	7.00
15:31:00.64,	0.133,	-0.068,	0.328,	-0.570,	-0.420,	-0.490,	-0.034,	0.053,	-0.438,	-0.897,	7.00
15:31:00.69,	0.129,	-0.050,	0.330,	-0.570,	-0.430,	-0.450,	-0.034,	0.052,	-0.444,	-0.894,	7.00
15:31:00.73,	0.128,	-0.039,	0.330,	-0.540,	-0.430,	-0.440,	-0.033,	0.051,	-0.447,	-0.892,	7.00
15:31:00.78,	0.132,	-0.043,	0.332,	-0.490,	-0.440,	-0.440,	-0.033,	0.049,	-0.451,	-0.891,	7.00
15:31:00.83,	0.128,	-0.043,	0.336,	-0.470,	-0.430,	-0.430,	-0.033,	0.048,	-0.455,	-0.888,	7.00
15:31:00.88,	0.126,	-0.048,	0.337,	-0.470,	-0.430,	-0.450,	-0.032,	0.048,	-0.460,	-0.886,	7.00
15:31:00.93,	0.132,	-0.041,	0.338,	-0.450,	-0.420,	-0.460,	-0.032,	0.047,	-0.465,	-0.884,	7.00
15:31:00.97,	0.132,	-0.037,	0.338,	-0.440,	-0.440,	-0.440,	-0.032,	0.046,	-0.468,	-0.882,	7.00
15:31:01.02,	0.129,	-0.034,	0.342,	-0.400,	-0.440,	-0.460,	-0.032,	0.045,	-0.473,	-0.879,	7.00
15:31:01.06,	0.132,	-0.027,	0.343,	-0.370,	-0.430,	-0.440,	-0.032,	0.044,	-0.477,	-0.877,	7.00
15:31:01.11,	0.137,	-0.036,	0.344,	-0.400,	-0.440,	-0.460,	-0.032,	0.043,	-0.482,	-0.875,	7.00
15:31:01.16,	0.132,	-0.041,	0.348,	-0.370,	-0.460,	-0.470,	-0.032,	0.042,	-0.487,	-0.872,	7.00
15:31:01.20,	0.122,	-0.051,	0.352,	-0.370,	-0.420,	-0.530,	-0.032,	0.042,	-0.490,	-0.870,	7.00
15:31:01.25,	0.131,	-0.061,	0.351,	-0.370,	-0.400,	-0.600,	-0.032,	0.042,	-0.496,	-0.867,	7.00
15:31:01.30,	0.131,	-0.062,	0.352,	-0.400,	-0.440,	-0.630,	-0.032,	0.042,	-0.501,	-0.864,	7.00
15:31:01.34,	0.129,	-0.064,	0.353,	-0.390,	-0.440,	-0.690,	-0.033,	0.041,	-0.507,	-0.860,	7.00
15:31:01.39,	0.124,	-0.067,	0.358,	-0.400,	-0.440,	-0.690,	-0.033,	0.041,	-0.512,	-0.857,	7.00
15:31:01.44,	0.122,	-0.071,	0.359,	-0.370,	-0.420,	-0.680,	-0.033,	0.041,	-0.516,	-0.855,	7.00
15:31:01.49,	0.118,	-0.083,	0.363,	-0.390,	-0.430,	-0.640,	-0.033,	0.042,	-0.521,	-0.852,	7.00
15:31:01.53,	0.114,	-0.094,	0.364,	-0.410,	-0.420,	-0.630,	-0.033,	0.042,	-0.526,	-0.849,	7.00
15:31:01.57,	0.106,	-0.107,	0.369,	-0.410,	-0.410,	-0.650,	-0.033,	0.043,	-0.529,	-0.847,	7.00
15:31:01.62,	0.102,	-0.109,	0.374,	-0.440,	-0.400,	-0.650,	-0.034,	0.044,	-0.534,	-0.844,	7.00
15:31:01.67,	0.099,	-0.109,	0.378,	-0.450,	-0.390,	-0.670,	-0.034,	0.044,	-0.539,	-0.841,	7.00
15:31:01.71,	0.093,	-0.112,	0.379,	-0.450,	-0.380,	-0.670,	-0.034,	0.045,	-0.543,	-0.838,	7.00
15:31:01.76,	0.091,	-0.113,	0.383,	-0.480,	-0.360,	-0.700,	-0.034,	0.046,	-0.549,	-0.834,	7.00
15:31:01.81,	0.080,	-0.120,	0.386,	-0.510,	-0.340,	-0.660,	-0.034,	0.047,	-0.554,	-0.831,	7.00
15:31:01.85,	0.070,	-0.126,	0.391,	-0.490,	-0.330,	-0.630,	-0.034,	0.048,	-0.559,	-0.827,	7.00
15:31:01.90,	0.063,	-0.129,	0.394,	-0.510,	-0.310,	-0.570,	-0.034,	0.049,	-0.565,	-0.823,	7.00
15:31:01.95,	0.058,	-0.128,	0.398,	-0.530,	-0.280,	-0.530,	-0.034,	0.050,	-0.572,	-0.818,	7.00
15:31:01.99,	0.051,	-0.128,	0.401,	-0.530,	-0.260,	-0.510,	-0.034,	0.051,	-0.576,	-0.815,	7.00
15:31:02.04,	0.042,	-0.122,	0.406,	-0.560,	-0.240,	-0.530,	-0.034,	0.052,	-0.583,	-0.810,	7.00
15:31:02.08,	0.041,	-0.114,	0.408,	-0.560,	-0.200,	-0.530,	-0.033,	0.052,	-0.589,	-0.805,	7.00
15:31:02.13,	0.038,	-0.109,	0.410,	-0.570,	-0.190,	-0.510,	-0.033,	0.053,	-0.595,	-0.801,	7.00
15:31:02.18,	0.026,	-0.106,	0.416,	-0.580,	-0.200,	-0.500,	-0.033,	0.054,	-0.602,	-0.796,	7.00
15:31:02.23,	0.014,	-0.104,	0.421,	-0.560,	-0.160,	-0.460,	-0.032,	0.055,	-0.609,	-0.791,	7.00
15:31:02.27,	0.009,	-0.091,	0.424,	-0.590,	-0.090,	-0.390,	-0.031,	0.055,	-0.615,	-0.786,	7.00
15:31:02.32,	0.016,	-0.076,	0.421,	-0.560,	-0.080,	-0.360,	-0.030,	0.055,	-0.622,	-0.780,	7.00
15:31:02.36,	0.014,	-0.070,	0.424,	-0.540,	-0.060,	-0.370,	-0.030,	0.055,	-0.628,	-0.776,	7.00
15:31:02.41,	0.009,	-0.056,	0.429,	-0.550,	-0.010,	-0.390,	-0.029,	0.055,	-0.633,	-0.771,	7.00
15:31:02.46,	0.006,	-0.039,	0.430,	-0.520,	-0.010,	-0.420,	-0.027,	0.055,	-0.641,	-0.765,	7.00
15:31:02.50,	0.008,	-0.029,	0.431,	-0.520,	0.000,	-0.390,	-0.026,	0.055,	-0.649,	-0.758,	7.00
15:31:02.55,	0.007,	-0.016,	0.434,	-0.490,	0.010,	-0.440,	-0.025,	0.054,	-0.655,	-0.753,	7.00
15:31:02.60,	0.001,	-0.002,	0.434,	-0.450,	0.060,	-0.360,	-0.024,	0.053,	-0.663,	-0.746,	7.00
15:31:02.64,	0.002,	0.012,	0.439,	-0.400,	0.070,	-0.310,	-0.023,	0.053,	-0.669,	-0.741,	7.00
15:31:02.69,	0.013,	0.030,	0.437,	-0.360,	0.090,	-0.270,	-0.021,	0.051,	-0.677,	-0.734,	7.00
15:31:02.74,	0.022,	0.038,	0.436,	-0.340,	0.090,	-0.260,	-0.020,	0.050,	-0.685,	-0.727,	7.00
15:31:02.78,	0.024,	0.052,	0.436,	-0.270,	0.090,	-0.240,	-0.019,	0.049,	-0.691,	-0.721,	7.00
15:31:02.83,	0.024,	0.061,	0.442,	-0.230,	0.110,	-0.210,	-0.018,	0.047,	-0.698,	-0.714,	7.00
15:31:02.87,	0.024,	0.067,	0.440,	-0.190,	0.110,	-0.140,	-0.017,	0.045,	-0.706,	-0.707,	7.00
15:31:02.92,	0.036,	0.077,	0.437,	-0.130,	0.110,	-0.170,	-0.016,	0.044,	-0.713,	-0.700,	7.00
15:31:02.97,	0.041,	0.087,	0.438,	-0.090,	0.100,	-0.120,	-0.015,	0.041,	-0.721,	-0.691,	7.00
15:31:03.01,	0.047,	0.101,	0.439,	-0.020,	0.080,	-0.090,	-0.013,	0.039,	-0.727,	-0.685,	7.00
15:31:03.06,	0.050,	0.106,	0.437,	0.020,	0.100,	-0.030,	-0.012,	0.037,	-0.736,	-0.676,	7.00
15:31:03.11,	0.066,	0.107,	0.434,	0.080,	0.080,	0.000,	-0.011,	0.034,	-0.743,	-0.668,	7.00
15:31:03.15,	0.069,	0.106,	0.437,	0.140,	0.040,	0.000,	-0.010,	0.032,	-0.749,	-0.662,	7.00
15:31:03.20,	0.066,	0.109,	0.437,	0.180,	0.030,	0.030,	-0.009,	0.030,	-0.754,	-0.656,	7.00
15:31:03.25,	0.063,	0.112,	0.439,	0.250,	0.010,	0.030,	-0.008,	0.027,	-0.761,	-0.648,	7.00
15:31:03.29,	0.071,	0.110,	0.437,	0.280,	-0.010,	0.020,	-0.008,	0.025,	-0.768,	-0.640,	7.00
15:31:03.33,	0.082,	0.109,	0.437,	0.330,	-0.030,	0.040,	-0.007,	0.023,	-0.773,	-0.634,	7.00
15:31:03.38,	0.084,	0.103,	0.434,	0.340,	-0.030,	0.050,	-0.007,	0.020,	-0.780,	-0.626,	7.00
15:31:03.42,	0.082,	0.097,	0.436,	0.380,	-0.070,	0.030,	-0.007,	0.018,	-0.787,	-0.616,	7.00
15:31:03.47,	0.084,	0.093,	0.437,	0.410,	-0.120,	0.000,	-0.007,	0.016,	-0.795,	-0.606,	7.00
15:31:03.52,	0.084,	0.084,	0.437,	0.430,	-0.130,	-0.020,	-0.007,	0.015,	-0.803,	-0.596,	7.00
15:31:03.56,	0.080,	0.081,	0.441,	0.440,	-0.160,	-0.040,	-0.007,	0.013,	-0.811,	-0.585,	7.00
15:31:03.61,	0.074,	0.068,	0.442,	0.440,	-0.160,	-0.050,	-0.008,	0.012,	-0.818,	-0.574,	7.00
15:31:03.70,	0.078,	0.056,	0.441,	0.450,	-0.200,	-0.140,	-0.009,	0.011,	-0.830,	-0.557,	7.00
15:31:03.74,	0.074,	0.043,	0.442,	0.440,	-0.210,	-0.190,	-0.010,	0.010,	-0.837,	-0.547,	7.00
15:31:03.79,	0.067,	0.028,	0.446,	0.430,	-0.220,	-0.190,	-0.010,	0.010,	-0.843,	-0.538,	7.00
15:31:03.84,	0.054,	0.016,	0.449,	0.400,	-0.220,	-0.190,	-0.011,	0.010,	-0.850,	-0.527,	7.00
15:31:03.88,	0.047,	0.010,	0.452,	0.390,	-0.220,	-0.190,	-0.012,	0.011,	-0.856,	-0.517,	7.00
15:31:03.93,	0.042,	-0.001,	0.453,	0.360,	-0.240,	-0.160,	-0.013,	0.011,	-0.863,	-0.506,	7.00
15:31:03.97,	0.037,	-0.004,	0.454,	0.360,	-0.230,	-0.170,	-0.014,	0.012,	-0.869,	-0.494,	7.00
15:31:04.02,	0.032,	-0.013,	0.456,	0.330,	-0.240,	-0.150,	-0.015,	0.012,	-0.874,	-0.485,	7.00
15:31:04.06,	0.022,	-0.024,	0.456,	0.310,	-0.210,	-0.160,	-0.016,	0.013,	-0.880,	-0.474,	7.00
15:31:04.11,	0.014,	-0.036,	0.461,	0.270,	-0.200,	-0.170,	-0.017,	0.014,	-0.886,	-0.463,	7.00
15:31:04.16,	0.004,	-0.040,	0.463,	0.240,	-0.200,	-0.160,	-0.018,	0.015,	-0.890,	-0.455,	7.00
15:31:04.20,	-0.009,	-0.044,	0.467,	0.230,	-0.180,	-0.170,	-0.019,	0.016,	-0.895,	-0.446,	7.00
15:31:04.25,	-0.022,	-0.050,	0.470,	0.190,	-0.130,	-0.120,	-0.020,	0.018,	-0.900,	-0.434,	7.00
15:31:04.29,	-0.026,	-0.050,	0.472,	0.190,	-0.110,	-0.110,	-0.021,	0.019,	-0.906,	-0.423,	7.00
15:31:04.34,	-0.027,	-0.056,	0.473,	0.190,	-0.090,	-0.100,	-0.021,	0.020,	-0.910,	-0.413,	7.00
15:31:04.39,	-0.031,	-0.059,	0.474,	0.130,	-0.090,	-0.080,	-0.022,	0.022,	-0.916,	-0.400,	7.00
15:31:04.43,	-0.040,	-0.057,	0.478,	0.100,	-0.040,	-0.120,	-0.023,	0.023,	-0.921,	-0.389,	7.00
15:31:04.48,	-0.052,	-0.057,	0.482,	0.110,	0.000,	-0.170,	-0.024,	0.025,	-0.926,	-0.376,	7.00
15:31:04.53,	-0.061,	-0.057,	0.484,	0.070,	0.040,	-0.260,	-0.024,	0.027,	-0.931,	-0.364,	7.00
15:31:04.57,	-0.067,	-0.064,	0.487,	0.020,	0.090,	-0.310,	-0.025,	0.029,	-0.935,	-0.353,	7.00
15:31:04.62,	-0.064,	-0.063,	0.488,	0.010,	0.110,	-0.390,	-0.025,	0.031,	-0.940,	-0.339,	7.00
15:31:04.67,	-0.066,	-0.058,	0.486,	-0.030,	0.170,	-0.390,	-0.026,	0.033,	-0.944,	-0.327,	7.00
15:31:04.72,	-0.068,	-0.044,	0.488,	-0.010,	0.190,	-0.400,	-0.026,	0.035,	-0.948,	-0.316,	7.00
15:31:04.77,	-0.069,	-0.047,	0.491,	-0.030,	0.240,	-0.430,	-0.026,	0.037,	-0.952,	-0.304,	7.00
15:31:04.81,	-0.067,	-0.066,	0.490,	-0.040,	0.250,	-0.440,	-0.027,	0.038,	-0.954,	-0.295,	7.00
15:31:04.86,	-0.071,	-0.070,	0.492,	-0.070,	0.300,	-0.520,	-0.028,	0.040,	-0.958,	-0.283,	7.00
15:31:04.91,	-0.076,	-0.057,	0.494,	-0.110,	0.330,	-0.660,	-0.028,	0.042,	-0.961,	-0.271,	7.00
15:31:04.96,	-0.069,	-0.032,	0.491,	-0.110,	0.380,	-0.770,	-0.028,	0.043,	-0.964,	-0.259,	7.00
15:31:05.01,	-0.062,	-0.033,	0.494,	-0.110,	0.390,	-0.910,	-0.028,	0.044,	-0.967,	-0.248,	7.00
15:31:05.06,	-0.062,	-0.041,	0.496,	-0.100,	0.430,	-0.920,	-0.028,	0.044,	-0.970,	-0.238,	7.00
15:31:05.11,	-0.059,	-0.058,	0.494,	-0.130,	0.430,	-0.940,	-0.029,	0.045,	-0.973,	-0.225,	7.00
15:31:05.15,	-0.048,	-0.057,	0.494,	-0.130,	0.470,	-0.910,	-0.030,	0.045,	-0.975,	-0.214,	7.00
15:31:05.21,	-0.043,	-0.047,	0.492,	-0.140,	0.440,	-0.890,	-0.030,	0.045,	-0.978,	-0.202,	7.00
15:31:05.26,	-0.054,	-0.029,	0.496,	-0.130,	0.450,	-0.920,	-0.030,	0.046,	-0.980,	-0.191,	7.00
15:31:05.30,	-0.044,	-0.028,	0.498,	-0.110,	0.510,	-0.990,	-0.030,	0.046,	-0.982,	-0.179,	7.00
15:31:05.36,	-0.028,	-0.028,	0.493,	-0.090,	0.480,	-1.090,	-0.030,	0.045,	-0.984,	-0.168,	7.00
15:31:05.40,	-0.018,	-0.032,	0.490,	-0.120,	0.460,	-1.160,	-0.030,	0.045,	-0.986,	-0.156,	7.00
15:31:05.45,	-0.024,	-0.034,	0.496,	-0.090,	0.470,	-1.200,	-0.031,	0.044,	-0.988,	-0.147,	7.00
15:31:05.50,	-0.024,	-0.034,	0.493,	-0.110,	0.500,	-1.200,	-0.031,	0.044,	-0.989,	-0.135,	7.00
15:31:05.54,	-0.008,	-0.036,	0.491,	-0.110,	0.470,	-1.180,	-0.031,	0.043,	-0.991,	-0.124,	7.00
15:31:05.59,	0.002,	-0.028,	0.490,	-0.110,	0.470,	-1.160,	-0.032,	0.042,	-0.992,	-0.115,	7.00
15:31:05.63,	-0.007,	-0.010,	0.493,	-0.080,	0.440,	-1.140,	-0.031,	0.042,	-0.993,	-0.103,	7.00
15:31:05.68,	-0.007,	-0.004,	0.493,	-0.090,	0.460,	-1.210,	-0.031,	0.041,	-0.994,	-0.094,	7.00
15:31:05.73,	0.010,	-0.006,	0.490,	-0.040,	0.450,	-1.230,	-0.031,	0.040,	-0.995,	-0.082,	7.00
15:31:05.77,	0.020,	-0.017,	0.488,	-0.050,	0.400,	-1.300,	-0.031,	0.039,	-0.996,	-0.071,	7.00
15:31:05.82,	0.016,	-0.027,	0.489,	-0.050,	0.410,	-1.330,	-0.031,	0.038,	-0.997,	-0.061,	7.00
15:31:05.87,	0.004,	-0.024,	0.493,	-0.060,	0.410,	-1.370,	-0.032,	0.037,	-0.998,	-0.050,	7.00
15:31:05.91,	0.017,	-0.011,	0.492,	-0.060,	0.410,	-1.350,	-0.031,	0.037,	-0.998,	-0.040,	7.00
15:31:05.96,	0.034,	0.014,	0.489,	-0.040,	0.380,	-1.310,	-0.031,	0.035,	-0.998,	-0.029,	7.00
15:31:06.00,	0.028,	0.020,	0.490,	0.000,	0.360,	-1.290,	-0.030,	0.034,	-0.999,	-0.017,	7.00
15:31:06.05,	0.021,	0.012,	0.494,	0.020,	0.340,	-1.290,	-0.030,	0.033,	-0.999,	-0.008,	7.00
15:31:06.10,	0.030,	0.006,	0.492,	0.000,	0.350,	-1.360,	-0.030,	0.032,	-0.999,	0.004,	7.00
15:31:06.14,	0.041,	0.003,	0.490,	0.010,	0.310,	-1.380,	-0.030,	0.031,	-0.999,	0.013,	7.00
15:31:06.19,	0.032,	0.010,	0.491,	0.020,	0.300,	-1.460,	-0.030,	0.030,	-0.999,	0.025,	7.00
15:31:06.23,	0.032,	0.009,	0.494,	0.010,	0.290,	-1.480,	-0.029,	0.029,	-0.998,	0.036,	7.00
15:31:06.28,	0.046,	0.028,	0.491,	0.020,	0.280,	-1.490,	-0.029,	0.028,	-0.998,	0.046,	7.00
15:31:06.32,	0.056,	0.044,	0.487,	0.050,	0.250,	-1.500,	-0.028,	0.027,	-0.998,	0.057,	7.00
15:31:06.37,	0.042,	0.054,	0.493,	0.090,	0.220,	-1.470,	-0.027,	0.026,	-0.997,	0.067,	7.00
15:31:06.42,	0.028,	0.052,	0.498,	0.120,	0.250,	-1.470,	-0.026,	0.025,	-0.996,	0.076,	7.00
15:31:06.46,	0.037,	0.039,	0.494,	0.140,	0.260,	-1.510,	-0.025,	0.024,	-0.996,	0.088,	7.00
15:31:06.50,	0.060,	0.030,	0.486,	0.140,	0.180,	-1.560,	-0.025,	0.023,	-0.995,	0.097,	7.00
15:31:06.55,	0.060,	0.031,	0.490,	0.130,	0.160,	-1.580,	-0.024,	0.022,	-0.994,	0.104,	7.00
15:31:06.59,	0.042,	0.042,	0.492,	0.150,	0.150,	-1.610,	-0.023,	0.021,	-0.993,	0.112,	7.00
15:31:06.64,	0.040,	0.057,	0.494,	0.170,	0.150,	-1.620,	-0.022,	0.020,	-0.992,	0.122,	7.00
15:31:06.69,	0.062,	0.068,	0.491,	0.200,	0.140,	-1.590,	-0.021,	0.019,	-0.991,	0.128,	7.00
15:31:06.73,	0.076,	0.060,	0.488,	0.230,	0.080,	-1.490,	-0.020,	0.018,	-0.990,	0.137,	7.00
15:31:06.78,	0.059,	0.049,	0.491,	0.260,	0.070,	-1.490,	-0.020,	0.016,	-0.989,	0.147,	7.00
15:31:06.82,	0.049,	0.040,	0.494,	0.250,	0.050,	-1.460,	-0.019,	0.016,	-0.987,	0.156,	7.00
15:31:06.87,	0.061,	0.039,	0.492,	0.250,	0.070,	-1.460,	-0.019,	0.014,	-0.986,	0.165,	7.00
15:31:06.92,	0.086,	0.043,	0.486,	0.260,	0.000,	-1.480,	-0.018,	0.013,	-0.985,	0.172,	7.00
15:31:06.96,	0.081,	0.041,	0.489,	0.260,	-0.020,	-1.500,	-0.018,	0.012,	-0.983,	0.181,	7.00
15:31:07.01,	0.068,	0.044,	0.491,	0.260,	-0.040,	-1.480,	-0.018,	0.011,	-0.982,	0.185,	7.00
15:31:07.05,	0.070,	0.048,	0.492,	0.290,	-0.040,	-1.430,	-0.017,	0.010,	-0.981,	0.195,	7.00
15:31:07.10,	0.092,	0.047,	0.487,	0.300,	-0.040,	-1.370,	-0.017,	0.008,	-0.979,	0.203,	7.00
15:31:07.14,	0.101,	0.036,	0.483,	0.320,	-0.100,	-1.280,	-0.016,	0.006,	-0.977,	0.211,	7.00
15:31:07.19,	0.101,	0.019,	0.482,	0.300,	-0.130,	-1.240,	-0.016,	0.005,	-0.976,	0.217,	7.00
15:31:07.23,	0.097,	0.006,	0.488,	0.290,	-0.150,	-1.180,	-0.017,	0.003,	-0.974,	0.228,	7.00
15:31:07.28,	0.102,	-0.001,	0.483,	0.270,	-0.180,	-1.180,	-0.017,	0.002,	-0.971,	0.237,	7.00
15:31:07.32,	0.120,	-0.001,	0.479,	0.270,	-0.190,	-1.140,	-0.018,	0.000,	-0.970,	0.243,	7.00
15:31:07.37,	0.137,	0.001,	0.474,	0.260,	-0.230,	-1.080,	-0.018,	-0.002,	-0.967,	0.254,	7.00
15:31:07.41,	0.134,	-0.002,	0.477,	0.250,	-0.280,	-1.070,	-0.018,	-0.004,	-0.965,	0.261,	7.00
15:31:07.46,	0.137,	-0.020,	0.473,	0.240,	-0.290,	-0.980,	-0.019,	-0.006,	-0.962,	0.271,	7.00
15:31:07.50,	0.158,	-0.048,	0.470,	0.200,	-0.320,	-0.930,	-0.021,	-0.009,	-0.959,	0.282,	7.00
15:31:07.55,	0.171,	-0.067,	0.464,	0.140,	-0.370,	-0.840,	-0.022,	-0.011,	-0.957,	0.290,	7.00
15:31:07.60,	0.166,	-0.079,	0.466,	0.100,	-0.420,	-0.770,	-0.024,	-0.014,	-0.954,	0.300,	7.00
15:31:07.65,	0.160,	-0.083,	0.468,	0.040,	-0.410,	-0.760,	-0.026,	-0.016,	-0.950,	0.310,	7.00
15:31:07.70,	0.180,	-0.081,	0.461,	0.010,	-0.450,	-0.690,	-0.028,	-0.018,	-0.946,	0.321,	7.00
15:31:07.74,	0.197,	-0.087,	0.454,	-0.010,	-0.480,	-0.660,	-0.029,	-0.021,	-0.944,	0.329,	7.00
15:31:07.79,	0.200,	-0.111,	0.452,	-0.040,	-0.530,	-0.610,	-0.031,	-0.023,	-0.940,	0.340,	7.00
15:31:07.83,	0.204,	-0.142,	0.451,	-0.080,	-0.550,	-0.570,	-0.033,	-0.026,	-0.936,	0.350,	7.00
15:31:07.88,	0.210,	-0.167,	0.447,	-0.160,	-0.550,	-0.520,	-0.035,	-0.028,	-0.933,	0.358,	7.00
15:31:07.93,	0.203,	-0.166,	0.448,	-0.250,	-0.580,	-0.400,	-0.038,	-0.030,	-0.929,	0.368,	7.00
15:31:07.98,	0.197,	-0.164,	0.450,	-0.270,	-0.580,	-0.320,	-0.040,	-0.032,	-0.925,	0.376,	7.00
15:31:08.03,	0.213,	-0.173,	0.440,	-0.300,	-0.570,	-0.290,	-0.042,	-0.034,	-0.921,	0.386,	7.00
15:31:08.07,	0.234,	-0.182,	0.437,	-0.370,	-0.620,	-0.220,	-0.043,	-0.037,	-0.916,	0.397,	7.00
15:31:08.11,	0.228,	-0.200,	0.437,	-0.410,	-0.650,	-0.160,	-0.045,	-0.038,	-0.913,	0.405,	7.00
15:31:08.16,	0.211,	-0.219,	0.439,	-0.470,	-0.620,	-0.090,	-0.047,	-0.040,	-0.907,	0.416,	7.00
15:31:08.21,	0.218,	-0.230,	0.436,	-0.530,	-0.620,	-0.060,	-0.049,	-0.042,	-0.902,	0.426,	7.00
15:31:08.26,	0.232,	-0.237,	0.432,	-0.570,	-0.640,	0.010,	-0.051,	-0.044,	-0.897,	0.436,	7.00
15:31:08.30,	0.213,	-0.240,	0.436,	-0.600,	-0.650,	0.090,	-0.052,	-0.045,	-0.891,	0.448,	7.00
15:31:08.39,	0.209,	-0.249,	0.436,	-0.670,	-0.590,	0.230,	-0.055,	-0.047,	-0.879,	0.471,	7.00
15:31:08.44,	0.226,	-0.247,	0.431,	-0.680,	-0.620,	0.290,	-0.055,	-0.049,	-0.873,	0.483,	7.00
15:31:08.48,	0.210,	-0.247,	0.432,	-0.690,	-0.620,	0.300,	-0.056,	-0.049,	-0.868,	0.490,	7.00
15:31:08.53,	0.191,	-0.260,	0.440,	-0.720,	-0.610,	0.330,	-0.057,	-0.050,	-0.862,	0.501,	7.00
15:31:08.58,	0.184,	-0.269,	0.441,	-0.740,	-0.560,	0.340,	-0.058,	-0.050,	-0.854,	0.514,	7.00
15:31:08.63,	0.184,	-0.271,	0.440,	-0.770,	-0.540,	0.420,	-0.059,	-0.051,	-0.846,	0.527,	7.00
15:31:08.67,	0.180,	-0.261,	0.442,	-0.810,	-0.520,	0.450,	-0.059,	-0.052,	-0.837,	0.541,	7.00
15:31:08.72,	0.167,	-0.247,	0.447,	-0.790,	-0.500,	0.510,	-0.059,	-0.052,	-0.830,	0.552,	7.00
15:31:08.77,	0.161,	-0.232,	0.451,	-0.800,	-0.480,	0.560,	-0.059,	-0.052,	-0.821,	0.565,	7.00
15:31:08.81,	0.154,	-0.238,	0.451,	-0.780,	-0.440,	0.560,	-0.059,	-0.052,	-0.812,	0.578,	7.00
15:31:08.86,	0.139,	-0.256,	0.456,	-0.790,	-0.450,	0.570,	-0.059,	-0.052,	-0.803,	0.591,	7.00
15:31:08.91,	0.117,	-0.246,	0.462,	-0.820,	-0.410,	0.550,	-0.060,	-0.052,	-0.793,	0.604,	7.00
15:31:08.95,	0.104,	-0.234,	0.468,	-0.810,	-0.380,	0.510,	-0.060,	-0.052,	-0.784,	0.615,	7.00
15:31:09.00,	0.103,	-0.209,	0.470,	-0.810,	-0.320,	0.560,	-0.060,	-0.051,	-0.773,	0.629,	7.00
15:31:09.04,	0.104,	-0.193,	0.471,	-0.800,	-0.330,	0.600,	-0.059,	-0.051,	-0.762,	0.643,	7.00
15:31:09.09,	0.087,	-0.188,	0.476,	-0.770,	-0.310,	0.620,	-0.059,	-0.050,	-0.756,	0.650,	7.00
15:31:09.14,	0.064,	-0.191,	0.483,	-0.740,	-0.250,	0.630,	-0.059,	-0.049,	-0.744,	0.664,	7.00
15:31:09.18,	0.057,	-0.194,	0.487,	-0.750,	-0.220,	0.620,	-0.059,	-0.049,	-0.732,	0.677,	7.00
15:31:09.23,	0.052,	-0.173,	0.486,	-0.760,	-0.200,	0.600,	-0.059,	-0.049,	-0.719,	0.691,	7.00
15:31:09.28,	0.029,	-0.158,	0.493,	-0.740,	-0.160,	0.560,	-0.058,	-0.048,	-0.706,	0.704,	7.00
15:31:09.33,	0.016,	-0.144,	0.501,	-0.710,	-0.100,	0.540,	-0.058,	-0.047,	-0.692,	0.718,	7.00
15:31:09.37,	0.019,	-0.133,	0.502,	-0.670,	-0.080,	0.560,	-0.058,	-0.046,	-0.677,	0.733,	7.00
15:31:09.42,	0.021,	-0.121,	0.499,	-0.680,	-0.050,	0.570,	-0.057,	-0.046,	-0.663,	0.745,	7.00
15:31:09.47,	-0.007,	-0.118,	0.507,	-0.670,	-0.030,	0.570,	-0.057,	-0.045,	-0.648,	0.758,	7.00
15:31:09.51,	-0.023,	-0.113,	0.511,	-0.640,	0.010,	0.600,	-0.057,	-0.044,	-0.633,	0.771,	7.00
15:31:09.56,	-0.026,	-0.104,	0.514,	-0.590,	0.040,	0.610,	-0.057,	-0.043,	-0.618,	0.783,	7.00
15:31:09.60,	-0.028,	-0.099,	0.514,	-0.590,	0.100,	0.570,	-0.057,	-0.043,	-0.604,	0.794,	7.00
15:31:09.65,	-0.033,	-0.088,	0.516,	-0.590,	0.120,	0.540,	-0.057,	-0.042,	-0.588,	0.806,	7.00
15:31:09.69,	-0.034,	-0.072,	0.514,	-0.570,	0.150,	0.510,	-0.057,	-0.041,	-0.573,	0.817,	7.00
15:31:09.74,	-0.039,	-0.060,	0.519,	-0.550,	0.170,	0.500,	-0.057,	-0.040,	-0.565,	0.822,	7.00
15:31:09.79,	-0.049,	-0.059,	0.519,	-0.520,	0.190,	0.500,	-0.057,	-0.039,	-0.548,	0.834,	7.00
15:31:09.84,	-0.058,	-0.066,	0.519,	-0.490,	0.240,	0.540,	-0.057,	-0.038,	-0.532,	0.844,	7.00
15:31:09.89,	-0.061,	-0.064,	0.522,	-0.450,	0.280,	0.550,	-0.058,	-0.037,	-0.515,	0.854,	7.00
15:31:09.94,	-0.066,	-0.054,	0.523,	-0.440,	0.310,	0.570,	-0.058,	-0.036,	-0.498,	0.864,	7.00
15:31:09.98,	-0.063,	-0.042,	0.523,	-0.400,	0.380,	0.520,	-0.057,	-0.035,	-0.483,	0.873,	7.00
15:31:10.03,	-0.050,	-0.029,	0.519,	-0.370,	0.350,	0.510,	-0.057,	-0.034,	-0.467,	0.882,	7.00
15:31:10.08,	-0.054,	-0.023,	0.518,	-0.340,	0.380,	0.480,	-0.056,	-0.033,	-0.452,	0.890,	7.00
15:31:10.12,	-0.068,	-0.033,	0.519,	-0.290,	0.390,	0.490,	-0.056,	-0.033,	-0.434,	0.898,	7.00
15:31:10.18,	-0.067,	-0.031,	0.518,	-0.250,	0.460,	0.500,	-0.056,	-0.032,	-0.417,	0.907,	7.00
15:31:10.22,	-0.060,	-0.020,	0.512,	-0.260,	0.440,	0.490,	-0.055,	-0.031,	-0.399,	0.915,	7.00
15:31:10.27,	-0.062,	-0.013,	0.514,	-0.210,	0.470,	0.530,	-0.055,	-0.030,	-0.386,	0.920,	7.00
15:31:10.32,	-0.056,	-0.008,	0.511,	-0.160,	0.500,	0.500,	-0.054,	-0.030,	-0.370,	0.927,	7.00
15:31:10.37,	-0.042,	-0.007,	0.502,	-0.160,	0.470,	0.510,	-0.053,	-0.029,	-0.354,	0.933,	7.00
15:31:10.41,	-0.043,	-0.009,	0.504,	-0.110,	0.470,	0.460,	-0.052,	-0.028,	-0.341,	0.938,	7.00
15:31:10.46,	-0.048,	-0.008,	0.503,	-0.090,	0.470,	0.460,	-0.051,	-0.028,	-0.326,	0.944,	7.00
15:31:10.50,	-0.050,	-0.007,	0.500,	-0.070,	0.490,	0.420,	-0.050,	-0.027,	-0.309,	0.949,	7.00
15:31:10.55,	-0.043,	-0.003,	0.498,	-0.050,	0.490,	0.400,	-0.049,	-0.027,	-0.300,	0.952,	7.00
15:31:10.60,	-0.037,	-0.001,	0.491,	-0.040,	0.490,	0.400,	-0.048,	-0.026,	-0.285,	0.957,	7.00
15:31:10.64,	-0.023,	0.001,	0.489,	-0.020,	0.470,	0.400,	-0.047,	-0.026,	-0.271,	0.961,	7.00
15:31:10.69,	-0.013,	0.002,	0.486,	-0.010,	0.450,	0.330,	-0.046,	-0.026,	-0.256,	0.965,	7.00
15:31:10.73,	-0.014,	0.008,	0.482,	0.000,	0.430,	0.280,	-0.045,	-0.026,	-0.242,	0.969,	7.00
15:31:10.78,	-0.012,	0.011,	0.480,	0.030,	0.430,	0.240,	-0.044,	-0.026,	-0.230,	0.972,	7.00
15:31:10.82,	-0.008,	0.009,	0.480,	0.050,	0.410,	0.220,	-0.043,	-0.026,	-0.216,	0.975,	7.00
15:31:10.87,	-0.003,	0.011,	0.474,	0.050,	0.410,	0.150,	-0.042,	-0.026,	-0.204,	0.978,	7.00
15:31:10.92,	0.000,	0.013,	0.472,	0.060,	0.420,	0.130,	-0.040,	-0.026,	-0.191,	0.980,	7.00
15:31:10.96,	0.020,	0.018,	0.466,	0.070,	0.390,	0.090,	-0.039,	-0.026,	-0.180,	0.982,	7.00
15:31:11.01,	0.039,	0.020,	0.459,	0.100,	0.340,	0.050,	-0.037,	-0.026,	-0.168,	0.985,	7.00
15:31:11.05,	0.041,	0.021,	0.458,	0.110,	0.330,	0.000,	-0.035,	-0.026,	-0.156,	0.987,	7.00
15:31:11.10,	0.034,	0.022,	0.456,	0.120,	0.290,	-0.070,	-0.034,	-0.025,	-0.148,	0.988,	7.00
15:31:11.15,	0.040,	0.021,	0.456,	0.130,	0.300,	-0.140,	-0.033,	-0.025,	-0.135,	0.990,	7.00
15:31:11.19,	0.052,	0.024,	0.450,	0.120,	0.250,	-0.260,	-0.031,	-0.025,	-0.126,	0.991,	7.00
15:31:11.24,	0.057,	0.028,	0.444,	0.130,	0.230,	-0.340,	-0.030,	-0.025,	-0.113,	0.993,	7.00
15:31:11.29,	0.068,	0.027,	0.444,	0.130,	0.220,	-0.430,	-0.028,	-0.024,	-0.102,	0.994,	7.00
15:31:11.33,	0.087,	0.021,	0.439,	0.150,	0.180,	-0.520,	-0.026,	-0.024,	-0.092,	0.995,	7.00
15:31:11.38,	0.089,	0.014,	0.436,	0.130,	0.130,	-0.590,	-0.024,	-0.024,	-0.081,	0.996,	7.00
15:31:11.42,	0.082,	0.016,	0.434,	0.140,	0.140,	-0.630,	-0.022,	-0.024,	-0.072,	0.997,	7.00
15:31:11.47,	0.086,	0.020,	0.434,	0.130,	0.070,	-0.740,	-0.020,	-0.024,	-0.060,	0.998,	7.00
15:31:11.51,	0.093,	0.026,	0.431,	0.150,	0.030,	-0.820,	-0.018,	-0.024,	-0.050,	0.998,	7.00
15:31:11.56,	0.100,	0.023,	0.428,	0.160,	0.010,	-0.940,	-0.016,	-0.023,	-0.040,	0.999,	7.00
15:31:11.61,	0.109,	0.013,	0.423,	0.140,	-0.030,	-1.050,	-0.014,	-0.023,	-0.030,	0.999,	7.00
15:31:11.66,	0.126,	0.007,	0.417,	0.130,	-0.070,	-1.150,	-0.011,	-0.024,	-0.019,	0.999,	7.00
15:31:11.70,	0.126,	0.010,	0.416,	0.100,	-0.120,	-1.290,	-0.009,	-0.024,	-0.011,	1.000,	7.00
15:31:11.75,	0.126,	0.021,	0.416,	0.110,	-0.160,	-1.380,	-0.007,	-0.024,	-0.001,	1.000,	7.00
15:31:11.80,	0.128,	0.011,	0.416,	0.100,	-0.190,	-1.490,	-0.005,	-0.024,	0.007,	1.000,	7.00
15:31:11.85,	0.117,	-0.014,	0.414,	0.080,	-0.220,	-1.550,	-0.004,	-0.025,	0.017,	1.000,	7.00
15:31:11.89,	0.107,	-0.026,	0.418,	0.040,	-0.210,	-1.670,	-0.002,	-0.026,	0.028,	0.999,	7.00
15:31:11.93,	0.119,	-0.006,	0.411,	0.020,	-0.230,	-1.700,	-0.001,	-0.027,	0.036,	0.999,	7.00
15:31:11.98,	0.150,	0.013,	0.401,	0.020,	-0.300,	-1.730,	0.001,	-0.027,	0.046,	0.999,	7.00
15:31:12.03,	0.153,	0.012,	0.401,	0.050,	-0.360,	-1.790,	0.003,	-0.027,	0.053,	0.998,	7.00
15:31:12.07,	0.136,	-0.010,	0.404,	0.000,	-0.370,	-1.840,	0.004,	-0.028,	0.062,	0.998,	7.00
15:31:12.12,	0.124,	-0.033,	0.404,	-0.030,	-0.380,	-1.930,	0.005,	-0.029,	0.069,	0.997,	7.00
15:31:12.16,	0.133,	-0.032,	0.401,	-0.060,	-0.390,	-1.990,	0.006,	-0.030,	0.078,	0.997,	7.00
15:31:12.21,	0.129,	-0.018,	0.403,	-0.090,	-0.410,	-2.050,	0.006,	-0.030,	0.086,	0.996,	7.00
15:31:12.25,	0.113,	-0.012,	0.406,	-0.100,	-0.390,	-2.010,	0.007,	-0.030,	0.092,	0.995,	7.00
15:31:12.30,	0.120,	-0.004,	0.399,	-0.090,	-0.390,	-2.050,	0.007,	-0.031,	0.099,	0.995,	7.00
15:31:12.35,	0.152,	-0.018,	0.391,	-0.070,	-0.400,	-1.990,	0.009,	-0.031,	0.107,	0.994,	7.00
15:31:12.40,	0.159,	-0.030,	0.386,	-0.110,	-0.460,	-1.980,	0.010,	-0.032,	0.115,	0.993,	7.00
15:31:12.44,	0.140,	-0.031,	0.388,	-0.140,	-0.460,	-1.980,	0.011,	-0.032,	0.123,	0.992,	7.00
15:31:12.49,	0.129,	-0.023,	0.390,	-0.160,	-0.450,	-2.020,	0.011,	-0.033,	0.129,	0.991,	7.00
15:31:12.53,	0.129,	-0.020,	0.386,	-0.150,	-0.450,	-1.990,	0.012,	-0.033,	0.135,	0.990,	7.00
15:31:12.58,	0.127,	-0.022,	0.387,	-0.170,	-0.460,	-1.970,	0.012,	-0.033,	0.140,	0.990,	7.00
15:31:12.62,	0.117,	-0.022,	0.387,	-0.160,	-0.460,	-1.880,	0.012,	-0.034,	0.146,	0.989,	7.00
15:31:12.67,	0.121,	-0.036,	0.384,	-0.160,	-0.430,	-1.750,	0.013,	-0.034,	0.151,	0.988,	7.00
15:31:12.72,	0.139,	-0.046,	0.379,	-0.180,	-0.460,	-1.650,	0.014,	-0.035,	0.157,	0.987,	7.00
15:31:12.76,	0.144,	-0.050,	0.377,	-0.190,	-0.500,	-1.610,	0.015,	-0.036,	0.163,	0.986,	7.00
15:31:12.81,	0.134,	-0.038,	0.378,	-0.200,	-0.500,	-1.570,	0.015,	-0.036,	0.169,	0.985,	7.00
15:31:12.85,	0.117,	-0.038,	0.380,	-0.200,	-0.480,	-1.600,	0.015,	-0.037,	0.175,	0.984,	7.00
15:31:12.93,	0.103,	-0.044,	0.381,	-0.230,	-0.470,	-1.600,	0.015,	-0.038,	0.182,	0.983,	7.00
15:31:12.97,	0.110,	-0.053,	0.374,	-0.260,	-0.470,	-1.500,	0.016,	-0.039,	0.187,	0.982,	7.00
15:31:13.01,	0.116,	-0.053,	0.374,	-0.270,	-0.480,	-1.460,	0.016,	-0.039,	0.194,	0.980,	7.00
15:31:13.07,	0.101,	-0.053,	0.376,	-0.240,	-0.470,	-1.290,	0.016,	-0.040,	0.199,	0.979,	7.00
15:31:13.12,	0.097,	-0.060,	0.373,	-0.250,	-0.450,	-1.210,	0.016,	-0.041,	0.204,	0.978,	7.00
15:31:13.16,	0.101,	-0.077,	0.370,	-0.290,	-0.440,	-1.240,	0.017,	-0.042,	0.211,	0.976,	7.00
15:31:13.21,	0.094,	-0.081,	0.370,	-0.300,	-0.470,	-1.280,	0.017,	-0.043,	0.214,	0.976,	7.00
15:31:13.25,	0.068,	-0.069,	0.376,	-0.340,	-0.450,	-1.340,	0.016,	-0.044,	0.221,	0.974,	7.00
15:31:13.29,	0.057,	-0.054,	0.379,	-0.330,	-0.390,	-1.350,	0.016,	-0.044,	0.225,	0.973,	7.00
15:31:13.34,	0.072,	-0.052,	0.373,	-0.320,	-0.370,	-1.340,	0.016,	-0.045,	0.232,	0.972,	7.00
15:31:13.39,	0.088,	-0.069,	0.366,	-0.340,	-0.390,	-1.310,	0.016,	-0.046,	0.235,	0.971,	7.00
15:31:13.43,	0.077,	-0.091,	0.368,	-0.370,	-0.390,	-1.220,	0.016,	-0.047,	0.240,	0.969,	7.00
15:31:13.48,	0.059,	-0.097,	0.370,	-0.410,	-0.350,	-1.200,	0.015,	-0.048,	0.245,	0.968,	7.00
15:31:13.52,	0.059,	-0.089,	0.368,	-0.410,	-0.310,	-1.150,	0.015,	-0.049,	0.249,	0.967,	7.00
15:31:13.57,	0.066,	-0.073,	0.366,	-0.420,	-0.320,	-1.170,	0.014,	-0.049,	0.254,	0.966,	7.00
15:31:13.62,	0.056,	-0.063,	0.366,	-0.420,	-0.320,	-1.190,	0.014,	-0.050,	0.261,	0.964,	7.00
15:31:13.67,	0.049,	-0.068,	0.368,	-0.410,	-0.290,	-1.240,	0.013,	-0.050,	0.267,	0.962,	7.00
15:31:13.71,	0.059,	-0.080,	0.363,	-0.430,	-0.250,	-1.290,	0.013,	-0.051,	0.271,	0.961,	7.00
15:31:13.76,	0.078,	-0.091,	0.354,	-0.460,	-0.260,	-1.270,	0.013,	-0.051,	0.277,	0.960,	7.00
15:31:13.80,	0.081,	-0.088,	0.353,	-0.450,	-0.260,	-1.250,	0.013,	-0.052,	0.282,	0.958,	7.00
15:31:13.85,	0.076,	-0.086,	0.356,	-0.470,	-0.250,	-1.200,	0.013,	-0.052,	0.286,	0.957,	7.00
15:31:13.89,	0.073,	-0.079,	0.352,	-0.480,	-0.230,	-1.120,	0.013,	-0.052,	0.292,	0.955,	7.00
15:31:13.94,	0.077,	-0.076,	0.350,	-0.460,	-0.230,	-1.090,	0.014,	-0.053,	0.295,	0.954,	7.00
15:31:13.99,	0.086,	-0.070,	0.347,	-0.460,	-0.270,	-1.070,	0.014,	-0.053,	0.300,	0.952,	7.00
15:31:14.03,	0.096,	-0.071,	0.343,	-0.460,	-0.230,	-1.060,	0.014,	-0.052,	0.307,	0.950,	7.00
15:31:14.08,	0.114,	-0.072,	0.339,	-0.460,	-0.250,	-1.060,	0.015,	-0.052,	0.310,	0.949,	7.00
15:31:14.13,	0.127,	-0.077,	0.330,	-0.470,	-0.270,	-1.020,	0.016,	-0.052,	0.315,	0.947,	7.00
15:31:14.17,	0.133,	-0.080,	0.329,	-0.450,	-0.310,	-0.950,	0.018,	-0.052,	0.320,	0.946,	7.00
15:31:14.22,	0.142,	-0.084,	0.326,	-0.470,	-0.320,	-0.960,	0.019,	-0.052,	0.326,	0.944,	7.00
15:31:14.27,	0.140,	-0.080,	0.323,	-0.480,	-0.340,	-0.890,	0.020,	-0.052,	0.332,	0.942,	7.00
15:31:14.31,	0.144,	-0.059,	0.323,	-0.450,	-0.350,	-0.810,	0.021,	-0.051,	0.336,	0.940,	7.00
15:31:14.36,	0.159,	-0.049,	0.320,	-0.440,	-0.340,	-0.750,	0.022,	-0.050,	0.341,	0.938,	7.00
15:31:14.40,	0.173,	-0.054,	0.314,	-0.420,	-0.400,	-0.690,	0.024,	-0.050,	0.345,	0.937,	7.00
15:31:14.45,	0.191,	-0.069,	0.308,	-0.420,	-0.400,	-0.630,	0.026,	-0.049,	0.351,	0.935,	7.00
15:31:14.50,	0.198,	-0.082,	0.304,	-0.440,	-0.470,	-0.580,	0.028,	-0.049,	0.356,	0.933,	7.00
15:31:14.55,	0.203,	-0.080,	0.300,	-0.440,	-0.500,	-0.520,	0.030,	-0.048,	0.361,	0.931,	7.00
15:31:14.59,	0.206,	-0.060,	0.301,	-0.430,	-0.510,	-0.410,	0.031,	-0.047,	0.367,	0.929,	7.00
15:31:14.64,	0.206,	-0.043,	0.300,	-0.410,	-0.520,	-0.310,	0.032,	-0.046,	0.371,	0.927,	7.00
15:31:14.69,	0.211,	-0.038,	0.297,	-0.380,	-0.560,	-0.190,	0.034,	-0.045,	0.376,	0.925,	7.00
15:31:14.73,	0.221,	-0.049,	0.293,	-0.350,	-0.580,	-0.090,	0.034,	-0.044,	0.378,	0.924,	7.00
15:31:14.78,	0.232,	-0.063,	0.288,	-0.350,	-0.620,	-0.010,	0.036,	-0.043,	0.382,	0.922,	7.00
15:31:14.83,	0.239,	-0.062,	0.283,	-0.340,	-0.650,	0.030,	0.037,	-0.042,	0.386,	0.921,	7.00
15:31:14.88,	0.240,	-0.056,	0.282,	-0.320,	-0.660,	0.100,	0.038,	-0.041,	0.390,	0.919,	7.00
15:31:14.93,	0.231,	-0.046,	0.286,	-0.310,	-0.660,	0.130,	0.038,	-0.040,	0.393,	0.918,	7.00
15:31:14.97,	0.223,	-0.033,	0.286,	-0.280,	-0.660,	0.160,	0.038,	-0.039,	0.398,	0.916,	7.00
15:31:15.02,	0.223,	-0.028,	0.288,	-0.260,	-0.670,	0.220,	0.038,	-0.038,	0.403,	0.914,	7.00
15:31:15.07,	0.228,	-0.026,	0.283,	-0.210,	-0.700,	0.290,	0.038,	-0.037,	0.405,	0.913,	7.00
15:31:15.11,	0.230,	-0.030,	0.281,	-0.210,	-0.700,	0.350,	0.038,	-0.036,	0.409,	0.911,	7.00
15:31:15.15,	0.230,	-0.034,	0.284,	-0.210,	-0.700,	0.370,	0.039,	-0.036,	0.411,	0.910,	7.00
15:31:15.20,	0.224,	-0.037,	0.280,	-0.200,	-0.710,	0.420,	0.039,	-0.035,	0.413,	0.909,	7.00
15:31:15.25,	0.212,	-0.031,	0.283,	-0.210,	-0.690,	0.400,	0.038,	-0.035,	0.415,	0.908,	7.00
15:31:15.29,	0.206,	-0.018,	0.283,	-0.180,	-0.680,	0.420,	0.038,	-0.034,	0.417,	0.907,	7.00
15:31:15.34,	0.196,	0.004,	0.290,	-0.170,	-0.700,	0.430,	0.037,	-0.034,	0.419,	0.907,	7.00
15:31:15.38,	0.190,	0.008,	0.289,	-0.130,	-0.690,	0.480,	0.036,	-0.033,	0.421,	0.906,	7.00
15:31:15.43,	0.187,	0.003,	0.289,	-0.090,	-0.680,	0.570,	0.036,	-0.032,	0.424,	0.904,	7.00
15:31:15.48,	0.190,	-0.009,	0.287,	-0.110,	-0.680,	0.590,	0.036,	-0.032,	0.429,	0.902,	7.00
15:31:15.52,	0.178,	-0.016,	0.287,	-0.090,	-0.670,	0.640,	0.035,	-0.032,	0.429,	0.902,	7.00
15:31:15.57,	0.160,	-0.009,	0.294,	-0.100,	-0.680,	0.620,	0.035,	-0.032,	0.433,	0.900,	7.00
15:31:15.62,	0.150,	0.014,	0.296,	-0.080,	-0.650,	0.630,	0.034,	-0.031,	0.435,	0.899,	7.00
15:31:15.66,	0.148,	0.036,	0.294,	-0.050,	-0.620,	0.640,	0.033,	-0.030,	0.438,	0.898,	7.00
15:31:15.71,	0.139,	0.029,	0.297,	-0.020,	-0.630,	0.680,	0.032,	-0.030,	0.439,	0.897,	7.00
15:31:15.76,	0.134,	0.017,	0.297,	0.000,	-0.620,	0.690,	0.031,	-0.029,	0.442,	0.896,	7.00
15:31:15.80,	0.130,	0.006,	0.296,	0.000,	-0.580,	0.770,	0.031,	-0.029,	0.442,	0.896,	7.00
15:31:15.85,	0.121,	0.009,	0.297,	0.000,	-0.600,	0.810,	0.030,	-0.029,	0.445,	0.895,	7.00
15:31:15.89,	0.111,	0.019,	0.299,	0.000,	-0.590,	0.780,	0.030,	-0.029,	0.446,	0.894,	7.00
15:31:15.94,	0.103,	0.034,	0.303,	0.010,	-0.550,	0.750,	0.029,	-0.029,	0.446,	0.894,	7.00
15:31:15.99,	0.100,	0.038,	0.302,	0.050,	-0.520,	0.730,	0.028,	-0.029,	0.449,	0.893,	7.00
15:31:16.03,	0.103,	0.027,	0.301,	0.040,	-0.520,	0.690,	0.027,	-0.028,	0.452,	0.891,	7.00
15:31:16.08,	0.103,	0.008,	0.299,	0.050,	-0.510,	0.650,	0.027,	-0.028,	0.457,	0.889,	7.00
15:31:16.13,	0.098,	0.000,	0.296,	0.030,	-0.510,	0.620,	0.027,	-0.029,	0.460,	0.887,	7.00
15:31:16.18,	0.091,	-0.007,	0.299,	0.010,	-0.500,	0.600,	0.026,	-0.029,	0.462,	0.886,	7.00
15:31:16.22,	0.090,	0.001,	0.297,	0.030,	-0.470,	0.600,	0.026,	-0.029,	0.462,	0.886,	7.00
15:31:16.27,	0.088,	0.006,	0.297,	0.020,	-0.470,	0.580,	0.026,	-0.029,	0.465,	0.885,	7.00
15:31:16.32,	0.090,	0.007,	0.294,	0.010,	-0.480,	0.530,	0.026,	-0.029,	0.468,	0.883,	7.00
15:31:16.36,	0.090,	-0.010,	0.296,	0.010,	-0.450,	0.450,	0.026,	-0.029,	0.470,	0.882,	7.00
15:31:16.41,	0.094,	-0.031,	0.292,	0.000,	-0.470,	0.400,	0.026,	-0.030,	0.472,	0.881,	7.00
15:31:16.45,	0.098,	-0.047,	0.288,	0.000,	-0.460,	0.390,	0.026,	-0.031,	0.474,	0.880,	7.00
15:31:16.50,	0.092,	-0.056,	0.290,	-0.050,	-0.460,	0.380,	0.027,	-0.032,	0.477,	0.878,	7.00
15:31:16.54,	0.088,	-0.053,	0.287,	-0.080,	-0.430,	0.350,	0.027,	-0.033,	0.478,	0.877,	7.00
15:31:16.59,	0.089,	-0.052,	0.288,	-0.080,	-0.430,	0.340,	0.027,	-0.033,	0.483,	0.875,	7.00
15:31:16.64,	0.096,	-0.052,	0.287,	-0.100,	-0.440,	0.290,	0.028,	-0.034,	0.487,	0.872,	7.00
15:31:16.68,	0.096,	-0.068,	0.282,	-0.110,	-0.450,	0.280,	0.028,	-0.035,	0.492,	0.870,	7.00
15:31:16.73,	0.092,	-0.087,	0.282,	-0.130,	-0.450,	0.210,	0.029,	-0.036,	0.493,	0.869,	7.00
15:31:16.78,	0.093,	-0.110,	0.280,	-0.180,	-0.440,	0.170,	0.030,	-0.038,	0.496,	0.867,	7.00
15:31:16.82,	0.092,	-0.124,	0.280,	-0.220,	-0.430,	0.050,	0.030,	-0.039,	0.498,	0.866,	7.00
15:31:16.86,	0.092,	-0.121,	0.277,	-0.270,	-0.420,	0.010,	0.031,	-0.041,	0.502,	0.864,	7.00
15:31:16.91,	0.090,	-0.114,	0.277,	-0.300,	-0.400,	0.000,	0.032,	-0.042,	0.505,	0.862,	7.00
15:31:16.96,	0.092,	-0.116,	0.274,	-0.340,	-0.400,	-0.120,	0.032,	-0.043,	0.507,	0.860,	7.00
15:31:17.00,	0.093,	-0.131,	0.274,	-0.350,	-0.400,	-0.150,	0.033,	-0.044,	0.510,	0.859,	7.00
15:31:17.05,	0.089,	-0.152,	0.271,	-0.400,	-0.380,	-0.220,	0.033,	-0.046,	0.513,	0.857,	7.00
15:31:17.10,	0.083,	-0.171,	0.270,	-0.460,	-0.390,	-0.330,	0.034,	-0.048,	0.516,	0.855,	7.00
15:31:17.14,	0.082,	-0.181,	0.269,	-0.500,	-0.370,	-0.420,	0.035,	-0.050,	0.520,	0.852,	7.00
15:31:17.19,	0.078,	-0.178,	0.270,	-0.570,	-0.350,	-0.550,	0.035,	-0.051,	0.524,	0.850,	7.00
15:31:17.24,	0.076,	-0.170,	0.267,	-0.610,	-0.350,	-0.650,	0.036,	-0.053,	0.528,	0.847,	7.00
15:31:17.28,	0.078,	-0.167,	0.266,	-0.630,	-0.320,	-0.730,	0.036,	-0.054,	0.531,	0.845,	7.00
15:31:17.32,	0.068,	-0.178,	0.266,	-0.650,	-0.310,	-0.800,	0.036,	-0.055,	0.535,	0.843,	7.00
15:31:17.37,	0.059,	-0.184,	0.267,	-0.680,	-0.280,	-0.890,	0.036,	-0.057,	0.537,	0.841,	7.00
15:31:17.42,	0.054,	-0.188,	0.263,	-0.700,	-0.280,	-0.960,	0.036,	-0.058,	0.539,	0.840,	7.00
15:31:17.46,	0.053,	-0.188,	0.261,	-0.750,	-0.260,	-1.040,	0.036,	-0.059,	0.542,	0.838,	7.00
15:31:17.50,	0.049,	-0.186,	0.262,	-0.780,	-0.220,	-1.160,	0.036,	-0.060,	0.546,	0.835,	7.00
15:31:17.55,	0.040,	-0.182,	0.261,	-0.800,	-0.230,	-1.320,	0.035,	-0.061,	0.549,	0.833,	7.00
15:31:17.60,	0.027,	-0.170,	0.262,	-0.840,	-0.180,	-1.440,	0.034,	-0.062,	0.553,	0.830,	7.00
15:31:17.64,	0.018,	-0.152,	0.264,	-0.840,	-0.140,	-1.520,	0.033,	-0.062,	0.558,	0.827,	7.00
15:31:17.72,	0.017,	-0.141,	0.262,	-0.810,	-0.070,	-1.630,	0.031,	-0.062,	0.563,	0.823,	7.00
15:31:17.77,	0.019,	-0.146,	0.257,	-0.790,	-0.090,	-1.640,	0.030,	-0.063,	0.568,	0.820,	7.00
15:31:17.81,	0.004,	-0.144,	0.258,	-0.780,	-0.060,	-1.750,	0.029,	-0.063,	0.573,	0.816,	7.00
15:31:17.86,	-0.023,	-0.139,	0.262,	-0.820,	-0.040,	-1.880,	0.028,	-0.063,	0.577,	0.814,	7.00
15:31:17.91,	-0.024,	-0.109,	0.263,	-0.820,	0.000,	-1.960,	0.026,	-0.063,	0.582,	0.811,	7.00
15:31:17.95,	-0.020,	-0.082,	0.262,	-0.790,	0.020,	-2.040,	0.025,	-0.063,	0.585,	0.808,	7.00
15:31:17.99,	-0.027,	-0.060,	0.261,	-0.730,	0.060,	-2.080,	0.023,	-0.062,	0.591,	0.804,	7.00
15:31:18.04,	-0.043,	-0.057,	0.264,	-0.710,	0.070,	-2.080,	0.021,	-0.062,	0.595,	0.801,	7.00
15:31:18.08,	-0.048,	-0.054,	0.264,	-0.670,	0.130,	-2.010,	0.020,	-0.061,	0.599,	0.798,	7.00
15:31:18.13,	-0.041,	-0.036,	0.259,	-0.650,	0.150,	-1.990,	0.018,	-0.061,	0.604,	0.795,	7.00
15:31:18.18,	-0.047,	-0.007,	0.262,	-0.590,	0.150,	-1.920,	0.016,	-0.060,	0.609,	0.791,	7.00
15:31:18.23,	-0.066,	0.017,	0.264,	-0.550,	0.190,	-1.840,	0.013,	-0.059,	0.614,	0.787,	7.00
15:31:18.27,	-0.071,	0.030,	0.266,	-0.500,	0.220,	-1.850,	0.011,	-0.058,	0.617,	0.784,	7.00
15:31:18.32,	-0.069,	0.048,	0.263,	-0.460,	0.270,	-1.800,	0.009,	-0.057,	0.622,	0.781,	7.00
15:31:18.36,	-0.070,	0.069,	0.262,	-0.380,	0.310,	-1.800,	0.006,	-0.056,	0.626,	0.778,	7.00
15:31:18.41,	-0.072,	0.083,	0.266,	-0.340,	0.320,	-1.730,	0.004,	-0.054,	0.631,	0.774,	7.00
15:31:18.46,	-0.070,	0.097,	0.264,	-0.250,	0.340,	-1.590,	0.001,	-0.053,	0.635,	0.771,	7.00
15:31:18.50,	-0.068,	0.114,	0.264,	-0.160,	0.400,	-1.400,	-0.001,	-0.052,	0.639,	0.767,	7.00
15:31:18.55,	-0.077,	0.130,	0.266,	-0.090,	0.380,	-1.280,	-0.004,	-0.050,	0.644,	0.763,	7.00
15:31:18.59,	-0.091,	0.143,	0.269,	-0.030,	0.420,	-1.200,	-0.007,	-0.048,	0.648,	0.760,	7.00
15:31:18.64,	-0.086,	0.156,	0.269,	0.050,	0.420,	-1.150,	-0.010,	-0.046,	0.653,	0.756,	7.00
15:31:18.69,	-0.080,	0.166,	0.267,	0.110,	0.450,	-1.140,	-0.012,	-0.044,	0.656,	0.753,	7.00
15:31:18.74,	-0.086,	0.172,	0.269,	0.140,	0.470,	-1.110,	-0.014,	-0.042,	0.661,	0.749,	7.00
15:31:18.79,	-0.084,	0.180,	0.268,	0.270,	0.470,	-1.080,	-0.016,	-0.040,	0.666,	0.745,	6.00
15:31:18.83,	-0.072,	0.183,	0.264,	0.310,	0.440,	-0.920,	-0.017,	-0.037,	0.670,	0.741,	6.00
15:31:18.88,	-0.070,	0.191,	0.261,	0.370,	0.440,	-0.780,	-0.018,	-0.036,	0.677,	0.734,	6.00
15:31:18.92,	-0.079,	0.200,	0.267,	0.430,	0.410,	-0.650,	-0.019,	-0.034,	0.685,	0.727,	6.00
15:31:18.97,	-0.082,	0.204,	0.267,	0.490,	0.450,	-0.610,	-0.020,	-0.033,	0.692,	0.721,	6.00
15:31:19.02,	-0.068,	0.210,	0.262,	0.520,	0.430,	-0.600,	-0.020,	-0.031,	0.701,	0.713,	6.00
15:31:19.06,	-0.064,	0.204,	0.261,	0.540,	0.380,	-0.590,	-0.020,	-0.030,	0.707,	0.706,	6.00
15:31:19.11,	-0.068,	0.194,	0.258,	0.570,	0.410,	-0.540,	-0.020,	-0.029,	0.715,	0.699,	6.00
15:31:19.15,	-0.061,	0.190,	0.259,	0.590,	0.390,	-0.500,	-0.020,	-0.028,	0.723,	0.690,	6.00
15:31:19.20,	-0.051,	0.187,	0.252,	0.610,	0.370,	-0.420,	-0.019,	-0.027,	0.726,	0.687,	6.00
15:31:19.25,	-0.051,	0.192,	0.252,	0.650,	0.340,	-0.230,	-0.019,	-0.026,	0.733,	0.679,	6.00
15:31:19.29,	-0.052,	0.192,	0.253,	0.670,	0.350,	-0.130,	-0.018,	-0.025,	0.740,	0.672,	6.00
15:31:19.34,	-0.049,	0.187,	0.251,	0.660,	0.310,	-0.090,	-0.017,	-0.025,	0.747,	0.664,	6.00
15:31:19.38,	-0.040,	0.171,	0.246,	0.670,	0.290,	-0.090,	-0.016,	-0.024,	0.754,	0.656,	6.00
15:31:19.43,	-0.036,	0.158,	0.243,	0.660,	0.260,	-0.010,	-0.015,	-0.024,	0.760,	0.649,	6.00
15:31:19.47,	-0.028,	0.151,	0.240,	0.650,	0.240,	0.050,	-0.014,	-0.024,	0.767,	0.641,	6.00
15:31:19.52,	-0.027,	0.149,	0.237,	0.670,	0.240,	0.230,	-0.013,	-0.024,	0.773,	0.633,	6.00
15:31:19.57,	-0.027,	0.150,	0.240,	0.680,	0.220,	0.350,	-0.012,	-0.023,	0.781,	0.624,	6.00
15:31:19.61,	-0.020,	0.150,	0.237,	0.700,	0.200,	0.610,	-0.011,	-0.023,	0.787,	0.616,	6.00
15:31:19.66,	-0.008,	0.149,	0.233,	0.720,	0.170,	0.750,	-0.010,	-0.022,	0.794,	0.608,	6.00
15:31:19.70,	-0.003,	0.143,	0.230,	0.710,	0.150,	0.820,	-0.009,	-0.022,	0.800,	0.599,	6.00
15:31:19.75,	-0.003,	0.138,	0.228,	0.710,	0.150,	0.840,	-0.008,	-0.021,	0.803,	0.596,	6.00
15:31:19.80,	0.004,	0.136,	0.221,	0.690,	0.150,	0.870,	-0.007,	-0.021,	0.809,	0.588,	6.00
15:31:19.85,	0.021,	0.140,	0.216,	0.670,	0.110,	0.890,	-0.006,	-0.020,	0.815,	0.580,	6.00
15:31:19.90,	0.024,	0.147,	0.212,	0.700,	0.100,	0.890,	-0.005,	-0.019,	0.820,	0.571,	6.00
15:31:19.95,	0.028,	0.156,	0.214,	0.710,	0.050,	0.920,	-0.004,	-0.018,	0.826,	0.563,	6.00
15:31:19.99,	0.046,	0.177,	0.207,	0.720,	0.040,	0.910,	-0.004,	-0.017,	0.832,	0.555,	6.00
15:31:20.03,	0.059,	0.191,	0.201,	0.730,	0.000,	0.890,	-0.004,	-0.015,	0.836,	0.548,	6.00
15:31:20.08,	0.069,	0.193,	0.197,	0.730,	0.000,	0.860,	-0.003,	-0.014,	0.841,	0.540,	6.00
15:31:20.12,	0.084,	0.188,	0.194,	0.740,	-0.030,	0.810,	-0.003,	-0.012,	0.845,	0.534,	6.00
15:31:20.17,	0.096,	0.198,	0.190,	0.750,	-0.060,	0.710,	-0.002,	-0.010,	0.851,	0.525,	6.00
15:31:20.22,	0.112,	0.227,	0.182,	0.750,	-0.110,	0.620,	-0.002,	-0.008,	0.854,	0.520,	6.00
15:31:20.26,	0.130,	0.270,	0.177,	0.770,	-0.150,	0.600,	-0.003,	-0.005,	0.859,	0.513,	6.00
15:31:20.31,	0.147,	0.287,	0.172,	0.810,	-0.170,	0.580,	-0.003,	-0.002,	0.862,	0.506,	6.00
15:31:20.35,	0.158,	0.286,	0.166,	0.890,	-0.240,	0.630,	-0.003,	-0.000,	0.864,	0.504,	6.00
15:31:20.40,	0.163,	0.271,	0.163,	0.900,	-0.270,	0.710,	-0.003,	0.002,	0.868,	0.497,	6.00
15:31:20.44,	0.184,	0.262,	0.153,	0.880,	-0.320,	0.720,	-0.002,	0.004,	0.872,	0.490,	6.00
15:31:20.49,	0.201,	0.278,	0.151,	0.890,	-0.360,	0.740,	-0.002,	0.006,	0.876,	0.483,	6.00
15:31:20.54,	0.210,	0.321,	0.147,	0.900,	-0.410,	0.720,	-0.002,	0.009,	0.880,	0.475,	6.00
15:31:20.58,	0.220,	0.351,	0.140,	0.950,	-0.440,	0.660,	-0.003,	0.011,	0.883,	0.469,	6.00
15:31:20.63,	0.238,	0.350,	0.136,	1.000,	-0.500,	0.710,	-0.003,	0.013,	0.886,	0.463,	6.00
15:31:20.68,	0.244,	0.322,	0.129,	1.000,	-0.530,	0.680,	-0.002,	0.015,	0.889,	0.457,	6.00
15:31:20.73,	0.251,	0.299,	0.122,	0.990,	-0.550,	0.740,	-0.001,	0.017,	0.893,	0.451,	6.00
15:31:20.77,	0.258,	0.307,	0.119,	0.980,	-0.600,	0.760,	-0.000,	0.018,	0.895,	0.445,	6.00
15:31:20.82,	0.263,	0.324,	0.113,	1.000,	-0.620,	0.790,	0.000,	0.019,	0.899,	0.438,	7.00
15:31:20.87,	0.269,	0.333,	0.110,	1.000,	-0.660,	0.740,	0.000,	0.021,	0.901,	0.433,	7.00
15:31:20.91,	0.273,	0.324,	0.108,	0.990,	-0.680,	0.650,	0.001,	0.022,	0.904,	0.427,	7.00
15:31:20.96,	0.270,	0.304,	0.102,	1.000,	-0.710,	0.500,	0.001,	0.023,	0.905,	0.425,	7.00
15:31:21.00,	0.263,	0.290,	0.098,	0.960,	-0.730,	0.400,	0.002,	0.023,	0.907,	0.421,	7.00
15:31:21.04,	0.262,	0.273,	0.098,	0.950,	-0.730,	0.310,	0.003,	0.023,	0.909,	0.416,	7.00
15:31:21.09,	0.261,	0.263,	0.093,	0.930,	-0.750,	0.250,	0.003,	0.023,	0.911,	0.412,	7.00
15:31:21.13,	0.257,	0.247,	0.092,	0.900,	-0.750,	0.240,	0.004,	0.023,	0.913,	0.407,	7.00
15:31:21.18,	0.247,	0.234,	0.091,	0.870,	-0.730,	0.180,	0.005,	0.023,	0.915,	0.402,	7.00
15:31:21.23,	0.240,	0.224,	0.087,	0.840,	-0.750,	0.080,	0.006,	0.022,	0.917,	0.398,	7.00
15:31:21.28,	0.231,	0.210,	0.086,	0.820,	-0.750,	0.010,	0.007,	0.022,	0.919,	0.393,	7.00
15:31:21.32,	0.221,	0.194,	0.084,	0.780,	-0.750,	-0.110,	0.008,	0.021,	0.920,	0.390,	7.00
15:31:21.37,	0.209,	0.177,	0.081,	0.750,	-0.760,	-0.190,	0.009,	0.020,	0.921,	0.388,	7.00
15:31:21.41,	0.199,	0.149,	0.080,	0.700,	-0.740,	-0.280,	0.010,	0.019,	0.922,	0.387,	7.00
15:31:21.46,	0.186,	0.124,	0.077,	0.660,	-0.720,	-0.310,	0.012,	0.018,	0.923,	0.383,	7.00
15:31:21.51,	0.173,	0.101,	0.076,	0.590,	-0.720,	-0.340,	0.013,	0.016,	0.925,	0.380,	7.00
15:31:21.56,	0.168,	0.098,	0.072,	0.580,	-0.690,	-0.350,	0.014,	0.015,	0.926,	0.376,	7.00
15:31:21.60,	0.151,	0.090,	0.071,	0.540,	-0.670,	-0.350,	0.015,	0.014,	0.928,	0.373,	7.00
15:31:21.64,	0.139,	0.073,	0.072,	0.520,	-0.660,	-0.400,	0.016,	0.013,	0.929,	0.370,	7.00
15:31:21.69,	0.128,	0.043,	0.070,	0.470,	-0.630,	-0.410,	0.018,	0.011,	0.930,	0.368,	7.00
15:31:21.74,	0.118,	0.020,	0.069,	0.410,	-0.620,	-0.490,	0.020,	0.009,	0.931,	0.365,	7.00
15:31:21.79,	0.100,	0.008,	0.069,	0.350,	-0.590,	-0.520,	0.021,	0.008,	0.931,	0.363,	7.00
15:31:21.83,	0.094,	0.003,	0.068,	0.320,	-0.580,	-0.540,	0.023,	0.006,	0.932,	0.361,	7.00
15:31:21.88,	0.092,	0.001,	0.063,	0.280,	-0.550,	-0.500,	0.024,	0.005,	0.933,	0.360,	7.00
15:31:21.92,	0.087,	-0.012,	0.060,	0.270,	-0.540,	-0.530,	0.025,	0.003,	0.933,	0.359,	7.00
15:31:21.97,	0.077,	-0.026,	0.060,	0.240,	-0.520,	-0.520,	0.027,	0.002,	0.934,	0.357,	7.00
15:31:22.01,	0.068,	-0.039,	0.060,	0.190,	-0.520,	-0.520,	0.028,	0.000,	0.934,	0.356,	7.00
15:31:22.06,	0.066,	-0.038,	0.058,	0.130,	-0.480,	-0.600,	0.029,	-0.001,	0.935,	0.355,	7.00
15:31:22.11,	0.057,	-0.046,	0.054,	0.110,	-0.460,	-0.660,	0.031,	-0.002,	0.935,	0.353,	7.00
15:31:22.15,	0.054,	-0.050,	0.053,	0.050,	-0.440,	-0.710,	0.032,	-0.004,	0.935,	0.353,	7.00
15:31:22.20,	0.059,	-0.061,	0.048,	0.030,	-0.440,	-0.790,	0.033,	-0.005,	0.935,	0.352,	7.00
15:31:22.24,	0.062,	-0.058,	0.044,	0.000,	-0.430,	-0.810,	0.034,	-0.006,	0.936,	0.351,	7.00
15:31:22.29,	0.060,	-0.053,	0.041,	-0.040,	-0.400,	-0.840,	0.035,	-0.007,	0.936,	0.351,	7.00
15:31:22.37,	0.057,	-0.051,	0.039,	-0.080,	-0.400,	-1.010,	0.037,	-0.008,	0.936,	0.349,	7.00
15:31:22.42,	0.059,	-0.056,	0.034,	-0.120,	-0.390,	-1.090,	0.038,	-0.009,	0.937,	0.348,	7.00
15:31:22.46,	0.057,	-0.059,	0.029,	-0.170,	-0.390,	-1.230,	0.038,	-0.009,	0.937,	0.348,	7.00
15:31:22.51,	0.060,	-0.060,	0.028,	-0.190,	-0.360,	-1.370,	0.039,	-0.010,	0.937,	0.347,	7.00
15:31:22.56,	0.061,	-0.053,	0.026,	-0.210,	-0.370,	-1.440,	0.040,	-0.011,	0.937,	0.348,	7.00
15:31:22.61,	0.069,	-0.041,	0.019,	-0.230,	-0.360,	-1.540,	0.040,	-0.011,	0.937,	0.347,	7.00
15:31:22.66,	0.069,	-0.031,	0.018,	-0.260,	-0.370,	-1.560,	0.041,	-0.011,	0.937,	0.346,	7.00
15:31:22.70,	0.067,	-0.032,	0.018,	-0.260,	-0.390,	-1.570,	0.041,	-0.011,	0.937,	0.346,	7.00
15:31:22.75,	0.064,	-0.037,	0.014,	-0.270,	-0.360,	-1.590,	0.041,	-0.011,	0.937,	0.345,	7.00
15:31:22.80,	0.061,	-0.038,	0.013,	-0.260,	-0.350,	-1.600,	0.041,	-0.012,	0.938,	0.345,	7.00
15:31:22.84,	0.054,	-0.034,	0.012,	-0.280,	-0.370,	-1.690,	0.041,	-0.012,	0.938,	0.345,	7.00
15:31:22.89,	0.053,	-0.027,	0.011,	-0.280,	-0.350,	-1.750,	0.041,	-0.013,	0.938,	0.344,	7.00
15:31:22.93,	0.052,	-0.027,	0.009,	-0.300,	-0.330,	-1.810,	0.041,	-0.013,	0.938,	0.344,	7.00
15:31:22.98,	0.041,	-0.026,	0.008,	-0.290,	-0.300,	-1.860,	0.040,	-0.013,	0.938,	0.344,	7.00
15:31:23.03,	0.039,	-0.028,	0.011,	-0.300,	-0.310,	-1.860,	0.040,	-0.014,	0.936,	0.350,	7.00
15:31:23.07,	0.037,	-0.029,	0.008,	-0.290,	-0.300,	-1.900,	0.040,	-0.015,	0.936,	0.350,	7.00
15:31:23.12,	0.028,	-0.028,	0.007,	-0.320,	-0.310,	-1.860,	0.040,	-0.015,	0.936,	0.350,	7.00
15:31:23.17,	0.009,	-0.032,	0.010,	-0.320,	-0.270,	-1.840,	0.040,	-0.016,	0.936,	0.350,	7.00
15:31:23.21,	0.001,	-0.029,	0.010,	-0.300,	-0.240,	-1.880,	0.039,	-0.017,	0.936,	0.350,	7.00
15:31:23.27,	-0.001,	-0.033,	0.011,	-0.300,	-0.250,	-1.940,	0.039,	-0.018,	0.936,	0.350,	7.00
15:31:23.32,	-0.014,	-0.037,	0.010,	-0.330,	-0.230,	-1.970,	0.039,	-0.019,	0.936,	0.350,	7.00
15:31:23.36,	-0.033,	-0.048,	0.012,	-0.320,	-0.210,	-2.020,	0.039,	-0.021,	0.933,	0.357,	7.00
15:31:23.41,	-0.041,	-0.053,	0.017,	-0.340,	-0.160,	-1.990,	0.039,	-0.022,	0.933,	0.357,	7.00
15:31:23.45,	-0.058,	-0.056,	0.016,	-0.350,	-0.110,	-1.950,	0.039,	-0.024,	0.933,	0.357,	7.00
15:31:23.50,	-0.068,	-0.056,	0.017,	-0.360,	-0.080,	-1.890,	0.039,	-0.026,	0.933,	0.357,	7.00
15:31:23.55,	-0.084,	-0.060,	0.018,	-0.370,	-0.040,	-1.820,	0.039,	-0.028,	0.933,	0.356,	7.00
15:31:23.59,	-0.098,	-0.069,	0.021,	-0.390,	0.000,	-1.800,	0.039,	-0.032,	0.930,	0.365,	7.00
15:31:23.64,	-0.114,	-0.080,	0.023,	-0.390,	0.050,	-1.750,	0.039,	-0.034,	0.926,	0.374,	7.00
15:31:23.68,	-0.132,	-0.091,	0.027,	-0.420,	0.120,	-1.680,	0.039,	-0.038,	0.926,	0.373,	7.00
15:31:23.73,	-0.146,	-0.094,	0.028,	-0.430,	0.150,	-1.620,	0.039,	-0.041,	0.926,	0.373,	7.00
15:31:23.78,	-0.169,	-0.097,	0.030,	-0.470,	0.210,	-1.540,	0.038,	-0.044,	0.926,	0.372,	7.00
15:31:23.83,	-0.189,	-0.101,	0.030,	-0.470,	0.290,	-1.460,	0.038,	-0.048,	0.926,	0.372,	7.00
15:31:23.87,	-0.208,	-0.113,	0.033,	-0.440,	0.380,	-1.300,	0.037,	-0.051,	0.924,	0.378,	7.00
15:31:23.92,	-0.216,	-0.129,	0.032,	-0.470,	0.450,	-1.190,	0.037,	-0.056,	0.920,	0.385,	7.00
15:31:23.96,	-0.222,	-0.137,	0.032,	-0.500,	0.480,	-1.060,	0.036,	-0.060,	0.916,	0.394,	7.00
15:31:24.01,	-0.242,	-0.142,	0.036,	-0.520,	0.550,	-0.920,	0.035,	-0.063,	0.913,	0.402,	7.00
15:31:24.05,	-0.272,	-0.142,	0.041,	-0.510,	0.610,	-0.810,	0.034,	-0.066,	0.910,	0.409,	7.00
15:31:24.10,	-0.284,	-0.139,	0.041,	-0.490,	0.690,	-0.680,	0.033,	-0.069,	0.906,	0.416,	7.00
15:31:24.15,	-0.289,	-0.152,	0.040,	-0.490,	0.710,	-0.520,	0.032,	-0.071,	0.904,	0.421,	7.00
15:31:24.19,	-0.299,	-0.167,	0.042,	-0.490,	0.750,	-0.400,	0.031,	-0.074,	0.902,	0.425,	7.00
15:31:24.24,	-0.308,	-0.179,	0.041,	-0.480,	0.800,	-0.250,	0.031,	-0.075,	0.899,	0.430,	7.00
15:31:24.28,	-0.316,	-0.172,	0.043,	-0.500,	0.790,	-0.110,	0.030,	-0.076,	0.898,	0.433,	7.00
15:31:24.33,	-0.321,	-0.160,	0.042,	-0.480,	0.830,	0.000,	0.029,	-0.078,	0.896,	0.437,	7.00
15:31:24.38,	-0.330,	-0.163,	0.040,	-0.470,	0.850,	0.120,	0.029,	-0.079,	0.894,	0.440,	7.00
15:31:24.43,	-0.336,	-0.181,	0.039,	-0.480,	0.870,	0.130,	0.028,	-0.080,	0.894,	0.440,	7.00
15:31:24.48,	-0.338,	-0.186,	0.039,	-0.480,	0.890,	0.190,	0.028,	-0.081,	0.893,	0.442,	7.00
15:31:24.52,	-0.339,	-0.181,	0.036,	-0.480,	0.940,	0.250,	0.028,	-0.082,	0.892,	0.443,	7.00
15:31:24.57,	-0.330,	-0.170,	0.032,	-0.470,	0.940,	0.290,	0.028,	-0.082,	0.891,	0.445,	7.00
15:31:24.62,	-0.320,	-0.159,	0.027,	-0.490,	0.930,	0.350,	0.027,	-0.083,	0.891,	0.445,	7.00
15:31:24.66,	-0.319,	-0.158,	0.028,	-0.460,	0.930,	0.430,	0.027,	-0.083,	0.891,	0.446,	7.00
15:31:24.71,	-0.326,	-0.168,	0.023,	-0.440,	0.940,	0.470,	0.027,	-0.083,	0.891,	0.445,	7.00
15:31:24.76,	-0.319,	-0.170,	0.022,	-0.470,	0.960,	0.530,	0.027,	-0.083,	0.892,	0.444,	7.00
15:31:24.80,	-0.309,	-0.168,	0.014,	-0.460,	0.940,	0.590,	0.028,	-0.083,	0.892,	0.443,	7.00
15:31:24.85,	-0.300,	-0.153,	0.010,	-0.440,	0.920,	0.600,	0.028,	-0.082,	0.893,	0.442,	7.00
15:31:24.90,	-0.290,	-0.148,	0.007,	-0.430,	0.940,	0.630,	0.028,	-0.081,	0.895,	0.438,	6.00
15:31:24.94,	-0.280,	-0.148,	-0.002,	-0.420,	0.910,	0.720,	0.029,	-0.081,	0.897,	0.434,	6.00
15:31:24.99,	-0.271,	-0.149,	-0.003,	-0.420,	0.880,	0.740,	0.029,	-0.080,	0.898,	0.431,	6.00
15:31:25.04,	-0.269,	-0.146,	-0.007,	-0.410,	0.870,	0.800,	0.029,	-0.079,	0.900,	0.429,	6.00
15:31:25.08,	-0.264,	-0.138,	-0.011,	-0.390,	0.870,	0.850,	0.029,	-0.078,	0.899,	0.429,	6.00
15:31:25.13,	-0.260,	-0.140,	-0.014,	-0.400,	0.860,	0.880,	0.030,	-0.077,	0.902,	0.424,	6.00
15:31:25.18,	-0.246,	-0.144,	-0.020,	-0.400,	0.830,	0.870,	0.031,	-0.076,	0.903,	0.421,	6.00
15:31:25.23,	-0.232,	-0.146,	-0.027,	-0.380,	0.800,	0.860,	0.031,	-0.075,	0.905,	0.417,	6.00
15:31:25.28,	-0.230,	-0.140,	-0.032,	-0.390,	0.800,	0.830,	0.032,	-0.074,	0.907,	0.413,	6.00
15:31:25.33,	-0.227,	-0.133,	-0.034,	-0.380,	0.770,	0.820,	0.032,	-0.073,	0.909,	0.410,	6.00
15:31:25.37,	-0.223,	-0.130,	-0.040,	-0.390,	0.740,	0.780,	0.033,	-0.072,	0.911,	0.405,	6.00
15:31:25.42,	-0.219,	-0.140,	-0.042,	-0.400,	0.740,	0.790,	0.034,	-0.071,	0.913,	0.401,	6.00
15:31:25.46,	-0.216,	-0.154,	-0.047,	-0.400,	0.760,	0.830,	0.035,	-0.071,	0.914,	0.398,	6.00
15:31:25.51,	-0.213,	-0.153,	-0.051,	-0.390,	0.730,	0.780,	0.035,	-0.070,	0.916,	0.394,	6.00
15:31:25.56,	-0.202,	-0.154,	-0.058,	-0.390,	0.710,	0.750,	0.036,	-0.070,	0.918,	0.390,	6.00
15:31:25.60,	-0.197,	-0.142,	-0.063,	-0.420,	0.680,	0.730,	0.037,	-0.069,	0.919,	0.386,	6.00
15:31:25.65,	-0.198,	-0.140,	-0.066,	-0.410,	0.680,	0.690,	0.038,	-0.069,	0.921,	0.382,	6.00
15:31:25.69,	-0.201,	-0.148,	-0.069,	-0.430,	0.700,	0.700,	0.038,	-0.069,	0.922,	0.380,	6.00
15:31:25.74,	-0.198,	-0.157,	-0.072,	-0.450,	0.690,	0.670,	0.039,	-0.069,	0.922,	0.378,	6.00
15:31:25.79,	-0.187,	-0.164,	-0.080,	-0.460,	0.670,	0.630,	0.040,	-0.069,	0.922,	0.380,	6.00
15:31:25.83,	-0.184,	-0.164,	-0.083,	-0.470,	0.640,	0.630,	0.041,	-0.068,	0.923,	0.376,	6.00
15:31:25.88,	-0.176,	-0.158,	-0.088,	-0.510,	0.660,	0.620,	0.041,	-0.068,	0.924,	0.375,	6.00
15:31:25.93,	-0.173,	-0.156,	-0.096,	-0.500,	0.640,	0.620,	0.042,	-0.068,	0.925,	0.373,	7.00
15:31:25.98,	-0.163,	-0.156,	-0.099,	-0.500,	0.620,	0.600,	0.043,	-0.068,	0.925,	0.372,	7.00
15:31:26.02,	-0.160,	-0.159,	-0.106,	-0.510,	0.620,	0.580,	0.044,	-0.067,	0.925,	0.371,	7.00
15:31:26.07,	-0.157,	-0.158,	-0.108,	-0.540,	0.630,	0.560,	0.044,	-0.067,	0.926,	0.370,	7.00
15:31:26.11,	-0.153,	-0.160,	-0.112,	-0.530,	0.600,	0.560,	0.045,	-0.067,	0.926,	0.369,	7.00
15:31:26.16,	-0.136,	-0.161,	-0.120,	-0.550,	0.600,	0.530,	0.046,	-0.066,	0.926,	0.369,	7.00
15:31:26.20,	-0.120,	-0.154,	-0.130,	-0.570,	0.600,	0.490,	0.047,	-0.066,	0.926,	0.369,	7.00
15:31:26.25,	-0.109,	-0.146,	-0.134,	-0.590,	0.540,	0.490,	0.047,	-0.065,	0.926,	0.370,	7.00
15:31:26.29,	-0.109,	-0.138,	-0.139,	-0.580,	0.540,	0.490,	0.047,	-0.064,	0.925,	0.371,	7.00
15:31:26.34,	-0.100,	-0.136,	-0.146,	-0.570,	0.520,	0.500,	0.048,	-0.063,	0.924,	0.374,	7.00
15:31:26.38,	-0.088,	-0.143,	-0.149,	-0.580,	0.470,	0.520,	0.048,	-0.062,	0.923,	0.376,	7.00
15:31:26.43,	-0.069,	-0.141,	-0.163,	-0.590,	0.460,	0.490,	0.048,	-0.061,	0.923,	0.378,	7.00
15:31:26.48,	-0.058,	-0.134,	-0.167,	-0.570,	0.430,	0.500,	0.049,	-0.059,	0.921,	0.381,	7.00
15:31:26.52,	-0.043,	-0.122,	-0.174,	-0.590,	0.390,	0.470,	0.049,	-0.058,	0.920,	0.384,	7.00
15:31:26.57,	-0.026,	-0.109,	-0.182,	-0.570,	0.380,	0.510,	0.049,	-0.056,	0.919,	0.388,	7.00
15:31:26.61,	-0.013,	-0.100,	-0.187,	-0.540,	0.330,	0.500,	0.049,	-0.054,	0.918,	0.390,	7.00
15:31:26.66,	-0.003,	-0.100,	-0.191,	-0.550,	0.290,	0.520,	0.049,	-0.052,	0.916,	0.394,	7.00
15:31:26.71,	0.002,	-0.100,	-0.200,	-0.550,	0.240,	0.510,	0.049,	-0.050,	0.914,	0.399,	7.00
15:31:26.75,	0.018,	-0.088,	-0.209,	-0.530,	0.210,	0.500,	0.050,	-0.049,	0.913,	0.402,	7.00
15:31:26.80,	0.038,	-0.086,	-0.214,	-0.530,	0.180,	0.510,	0.050,	-0.046,	0.911,	0.407,	7.00
15:31:26.85,	0.054,	-0.073,	-0.223,	-0.490,	0.110,	0.490,	0.050,	-0.044,	0.909,	0.411,	7.00
15:31:26.89,	0.063,	-0.060,	-0.229,	-0.490,	0.050,	0.490,	0.050,	-0.042,	0.907,	0.415,	7.00
15:31:26.94,	0.067,	-0.052,	-0.233,	-0.460,	0.010,	0.470,	0.050,	-0.040,	0.904,	0.422,	7.00
15:31:26.99,	0.081,	-0.043,	-0.241,	-0.420,	-0.020,	0.470,	0.050,	-0.038,	0.902,	0.427,	7.00
15:31:27.07,	0.096,	-0.034,	-0.249,	-0.420,	-0.110,	0.440,	0.050,	-0.033,	0.897,	0.438,	7.00
15:31:27.12,	0.103,	-0.027,	-0.257,	-0.400,	-0.180,	0.410,	0.050,	-0.031,	0.894,	0.444,	7.00
15:31:27.16,	0.116,	-0.021,	-0.261,	-0.380,	-0.190,	0.390,	0.050,	-0.029,	0.891,	0.450,	7.00
15:31:27.21,	0.126,	-0.004,	-0.267,	-0.360,	-0.260,	0.330,	0.049,	-0.027,	0.889,	0.455,	7.00
15:31:27.25,	0.126,	0.006,	-0.269,	-0.330,	-0.300,	0.320,	0.049,	-0.024,	0.886,	0.460,	7.00
15:31:27.30,	0.120,	0.012,	-0.269,	-0.310,	-0.370,	0.210,	0.049,	-0.021,	0.883,	0.466,	7.00
15:31:27.35,	0.122,	0.014,	-0.272,	-0.290,	-0.370,	0.170,	0.048,	-0.019,	0.880,	0.471,	7.00
15:31:27.40,	0.127,	0.010,	-0.279,	-0.280,	-0.420,	0.070,	0.048,	-0.017,	0.875,	0.481,	7.00
15:31:27.45,	0.127,	0.016,	-0.280,	-0.250,	-0.490,	-0.040,	0.048,	-0.015,	0.871,	0.489,	7.00
15:31:27.50,	0.122,	0.024,	-0.279,	-0.250,	-0.500,	-0.160,	0.047,	-0.014,	0.868,	0.494,	7.00
15:31:27.54,	0.117,	0.033,	-0.283,	-0.220,	-0.530,	-0.320,	0.046,	-0.013,	0.864,	0.502,	7.00
15:31:27.59,	0.117,	0.037,	-0.286,	-0.210,	-0.560,	-0.440,	0.045,	-0.011,	0.858,	0.511,	7.00
15:31:27.63,	0.111,	0.034,	-0.286,	-0.190,	-0.570,	-0.550,	0.043,	-0.011,	0.853,	0.520,	7.00
15:31:27.68,	0.099,	0.032,	-0.290,	-0.160,	-0.570,	-0.660,	0.042,	-0.010,	0.848,	0.529,	7.00
15:31:27.73,	0.092,	0.032,	-0.284,	-0.140,	-0.570,	-0.760,	0.041,	-0.010,	0.841,	0.539,	7.00
15:31:27.77,	0.089,	0.036,	-0.289,	-0.130,	-0.530,	-0.950,	0.040,	-0.010,	0.836,	0.547,	7.00
15:31:27.82,	0.093,	0.026,	-0.292,	-0.120,	-0.550,	-1.080,	0.039,	-0.010,	0.829,	0.558,	7.00
15:31:27.87,	0.089,	0.018,	-0.292,	-0.130,	-0.540,	-1.270,	0.038,	-0.010,	0.822,	0.568,	7.00
15:31:27.91,	0.074,	0.022,	-0.293,	-0.150,	-0.560,	-1.410,	0.037,	-0.011,	0.816,	0.576,	7.00
15:31:27.96,	0.064,	0.042,	-0.291,	-0.110,	-0.520,	-1.450,	0.035,	-0.011,	0.810,	0.585,	7.00
15:31:28.01,	0.059,	0.058,	-0.296,	-0.090,	-0.500,	-1.520,	0.033,	-0.011,	0.803,	0.595,	7.00
15:31:28.05,	0.061,	0.041,	-0.294,	-0.050,	-0.490,	-1.540,	0.032,	-0.012,	0.796,	0.605,	7.00
15:31:28.10,	0.058,	0.008,	-0.298,	-0.070,	-0.500,	-1.610,	0.032,	-0.012,	0.792,	0.609,	7.00
15:31:28.15,	0.049,	-0.004,	-0.299,	-0.080,	-0.490,	-1.730,	0.031,	-0.013,	0.784,	0.619,	7.00
15:31:28.20,	0.041,	0.018,	-0.298,	-0.110,	-0.470,	-1.840,	0.030,	-0.014,	0.778,	0.627,	7.00
15:31:28.25,	0.036,	0.048,	-0.299,	-0.090,	-0.460,	-1.890,	0.029,	-0.014,	0.770,	0.637,	7.00
15:31:28.29,	0.034,	0.059,	-0.298,	-0.080,	-0.420,	-1.960,	0.027,	-0.014,	0.762,	0.647,	7.00
15:31:28.33,	0.032,	0.058,	-0.301,	-0.040,	-0.390,	-1.950,	0.026,	-0.015,	0.756,	0.654,	7.00
15:31:28.38,	0.023,	0.041,	-0.303,	-0.010,	-0.400,	-1.930,	0.024,	-0.015,	0.747,	0.664,	7.00
15:31:28.43,	0.014,	0.032,	-0.300,	0.000,	-0.380,	-1.900,	0.023,	-0.016,	0.740,	0.672,	7.00
15:31:28.47,	0.011,	0.037,	-0.302,	0.000,	-0.350,	-1.880,	0.022,	-0.017,	0.734,	0.678,	7.00
15:31:28.52,	0.020,	0.051,	-0.311,	0.020,	-0.340,	-1.820,	0.021,	-0.017,	0.727,	0.686,	7.00
15:31:28.56,	0.023,	0.080,	-0.312,	0.030,	-0.340,	-1.740,	0.019,	-0.016,	0.720,	0.694,	7.00
15:31:28.61,	-0.001,	0.093,	-0.309,	0.070,	-0.350,	-1.720,	0.017,	-0.017,	0.711,	0.703,	7.00
15:31:28.66,	-0.018,	0.088,	-0.309,	0.120,	-0.280,	-1.660,	0.015,	-0.017,	0.701,	0.712,	7.00
15:31:28.70,	-0.002,	0.074,	-0.314,	0.130,	-0.260,	-1.610,	0.014,	-0.017,	0.697,	0.717,	7.00
15:31:28.76,	0.002,	0.086,	-0.319,	0.150,	-0.260,	-1.530,	0.013,	-0.017,	0.688,	0.725,	7.00
15:31:28.80,	-0.010,	0.114,	-0.317,	0.200,	-0.250,	-1.350,	0.011,	-0.017,	0.681,	0.732,	7.00
15:31:28.85,	-0.019,	0.128,	-0.317,	0.260,	-0.210,	-1.260,	0.009,	-0.016,	0.673,	0.739,	7.00
15:31:28.89,	-0.014,	0.112,	-0.323,	0.300,	-0.200,	-1.170,	0.007,	-0.016,	0.666,	0.746,	7.00
15:31:28.94,	-0.012,	0.103,	-0.326,	0.290,	-0.190,	-1.100,	0.006,	-0.016,	0.658,	0.753,	7.00
15:31:28.98,	-0.030,	0.118,	-0.324,	0.300,	-0.150,	-1.050,	0.004,	-0.016,	0.650,	0.760,	7.00
15:31:29.03,	-0.038,	0.141,	-0.322,	0.340,	-0.110,	-1.020,	0.002,	-0.016,	0.642,	0.766,	7.00
15:31:29.07,	-0.039,	0.154,	-0.323,	0.390,	-0.100,	-1.000,	-0.000,	-0.016,	0.633,	0.774,	7.00
15:31:29.12,	-0.036,	0.154,	-0.326,	0.450,	-0.070,	-0.960,	-0.002,	-0.016,	0.625,	0.780,	7.00
15:31:29.17,	-0.037,	0.137,	-0.332,	0.470,	-0.040,	-0.850,	-0.003,	-0.016,	0.617,	0.787,	7.00
15:31:29.21,	-0.038,	0.126,	-0.334,	0.460,	-0.020,	-0.790,	-0.005,	-0.016,	0.608,	0.794,	7.00
15:31:29.26,	-0.043,	0.133,	-0.339,	0.460,	-0.030,	-0.770,	-0.006,	-0.016,	0.603,	0.798,	7.00
15:31:29.31,	-0.057,	0.161,	-0.333,	0.480,	0.000,	-0.730,	-0.008,	-0.016,	0.593,	0.805,	7.00
15:31:29.36,	-0.063,	0.176,	-0.336,	0.540,	0.040,	-0.680,	-0.010,	-0.016,	0.588,	0.809,	7.00
15:31:29.40,	-0.060,	0.162,	-0.339,	0.570,	0.030,	-0.670,	-0.011,	-0.016,	0.582,	0.813,	7.00
15:31:29.45,	-0.060,	0.140,	-0.340,	0.570,	0.060,	-0.670,	-0.012,	-0.016,	0.572,	0.820,	7.00
15:31:29.50,	-0.072,	0.139,	-0.342,	0.540,	0.080,	-0.630,	-0.013,	-0.016,	0.564,	0.826,	7.00
15:31:29.54,	-0.068,	0.150,	-0.348,	0.560,	0.120,	-0.550,	-0.015,	-0.016,	0.556,	0.831,	7.00
15:31:29.59,	-0.061,	0.161,	-0.352,	0.590,	0.130,	-0.540,	-0.016,	-0.016,	0.549,	0.836,	7.00
15:31:29.64,	-0.074,	0.160,	-0.351,	0.600,	0.140,	-0.480,	-0.017,	-0.016,	0.540,	0.841,	7.00
15:31:29.69,	-0.087,	0.148,	-0.348,	0.610,	0.170,	-0.440,	-0.018,	-0.017,	0.533,	0.846,	7.00
15:31:29.73,	-0.090,	0.141,	-0.350,	0.590,	0.200,	-0.440,	-0.019,	-0.018,	0.527,	0.849,	7.00
15:31:29.78,	-0.082,	0.138,	-0.354,	0.580,	0.210,	-0.460,	-0.020,	-0.018,	0.519,	0.855,	7.00
15:31:29.83,	-0.083,	0.148,	-0.356,	0.590,	0.200,	-0.420,	-0.021,	-0.018,	0.511,	0.859,	7.00
15:31:29.87,	-0.087,	0.156,	-0.358,	0.610,	0.230,	-0.350,	-0.021,	-0.018,	0.503,	0.864,	7.00
15:31:29.92,	-0.082,	0.148,	-0.360,	0.620,	0.260,	-0.300,	-0.022,	-0.019,	0.495,	0.869,	7.00
15:31:29.97,	-0.087,	0.132,	-0.362,	0.610,	0.240,	-0.240,	-0.022,	-0.019,	0.486,	0.873,	7.00
15:31:30.01,	-0.103,	0.126,	-0.361,	0.590,	0.300,	-0.220,	-0.023,	-0.020,	0.480,	0.877,	7.00
15:31:30.06,	-0.106,	0.133,	-0.360,	0.600,	0.300,	-0.230,	-0.024,	-0.020,	0.472,	0.881,	7.00
15:31:30.11,	-0.108,	0.141,	-0.363,	0.570,	0.330,	-0.220,	-0.025,	-0.021,	0.466,	0.884,	7.00
15:31:30.16,	-0.101,	0.133,	-0.367,	0.590,	0.340,	-0.220,	-0.025,	-0.021,	0.458,	0.889,	7.00
15:31:30.21,	-0.101,	0.124,	-0.369,	0.580,	0.340,	-0.210,	-0.026,	-0.021,	0.448,	0.893,	7.00
15:31:30.25,	-0.108,	0.111,	-0.368,	0.550,	0.350,	-0.190,	-0.026,	-0.022,	0.440,	0.897,	7.00
15:31:30.30,	-0.117,	0.114,	-0.366,	0.530,	0.390,	-0.160,	-0.027,	-0.023,	0.433,	0.901,	7.00
15:31:30.34,	-0.122,	0.126,	-0.366,	0.530,	0.390,	-0.130,	-0.028,	-0.023,	0.425,	0.904,	7.00
15:31:30.39,	-0.129,	0.121,	-0.364,	0.530,	0.400,	-0.060,	-0.029,	-0.023,	0.419,	0.907,	7.00
15:31:30.44,	-0.127,	0.117,	-0.366,	0.540,	0.420,	-0.090,	-0.029,	-0.024,	0.411,	0.911,	7.00
15:31:30.48,	-0.131,	0.109,	-0.370,	0.520,	0.450,	-0.110,	-0.030,	-0.024,	0.403,	0.914,	7.00
15:31:30.53,	-0.132,	0.106,	-0.367,	0.500,	0.470,	-0.140,	-0.031,	-0.025,	0.396,	0.917,	7.00
15:31:30.57,	-0.130,	0.106,	-0.367,	0.490,	0.460,	-0.130,	-0.031,	-0.025,	0.388,	0.921,	7.00
15:31:30.62,	-0.136,	0.112,	-0.367,	0.500,	0.470,	-0.070,	-0.032,	-0.026,	0.379,	0.924,	7.00
15:31:30.67,	-0.150,	0.106,	-0.363,	0.500,	0.490,	-0.060,	-0.033,	-0.026,	0.373,	0.927,	7.00
15:31:30.71,	-0.156,	0.100,	-0.362,	0.490,	0.550,	-0.010,	-0.034,	-0.027,	0.367,	0.929,	7.00
15:31:30.75,	-0.158,	0.093,	-0.363,	0.480,	0.540,	0.000,	-0.035,	-0.028,	0.359,	0.932,	7.00
15:31:30.80,	-0.157,	0.093,	-0.363,	0.460,	0.550,	0.040,	-0.035,	-0.028,	0.352,	0.935,	7.00
15:31:30.85,	-0.154,	0.099,	-0.364,	0.440,	0.590,	0.070,	-0.036,	-0.029,	0.344,	0.938,	7.00
15:31:30.89,	-0.157,	0.103,	-0.363,	0.450,	0.570,	0.050,	-0.036,	-0.029,	0.338,	0.940,	7.00
15:31:30.94,	-0.161,	0.093,	-0.361,	0.430,	0.590,	0.060,	-0.037,	-0.030,	0.330,	0.943,	7.00
15:31:30.98,	-0.167,	0.081,	-0.360,	0.430,	0.600,	0.080,	-0.038,	-0.030,	0.322,	0.946,	6.00
15:31:31.03,	-0.176,	0.081,	-0.357,	0.410,	0.610,	0.140,	-0.038,	-0.031,	0.315,	0.948,	6.00
15:31:31.07,	-0.177,	0.084,	-0.360,	0.390,	0.620,	0.150,	-0.039,	-0.032,	0.307,	0.951,	6.00
15:31:31.12,	-0.174,	0.091,	-0.356,	0.390,	0.650,	0.200,	-0.039,	-0.032,	0.299,	0.953,	6.00
15:31:31.17,	-0.170,	0.086,	-0.359,	0.390,	0.650,	0.250,	-0.040,	-0.033,	0.292,	0.955,	6.00
15:31:31.21,	-0.163,	0.077,	-0.362,	0.360,	0.660,	0.290,	-0.040,	-0.033,	0.288,	0.956,	6.00
15:31:31.26,	-0.164,	0.064,	-0.361,	0.340,	0.640,	0.260,	-0.040,	-0.034,	0.279,	0.959,	6.00
15:31:31.30,	-0.170,	0.064,	-0.357,	0.320,	0.650,	0.310,	-0.040,	-0.034,	0.272,	0.961,	6.00
15:31:31.35,	-0.170,	0.068,	-0.354,	0.300,	0.660,	0.340,	-0.040,	-0.035,	0.264,	0.963,	6.00
15:31:31.39,	-0.168,	0.077,	-0.357,	0.340,	0.670,	0.370,	-0.040,	-0.035,	0.257,	0.965,	6.00
15:31:31.44,	-0.158,	0.070,	-0.359,	0.310,	0.650,	0.420,	-0.040,	-0.035,	0.248,	0.967,	6.00
15:31:31.48,	-0.152,	0.061,	-0.360,	0.300,	0.660,	0.450,	-0.040,	-0.035,	0.242,	0.969,	6.00
15:31:31.53,	-0.144,	0.060,	-0.361,	0.280,	0.650,	0.460,	-0.040,	-0.036,	0.233,	0.971,	6.00
15:31:31.57,	-0.139,	0.062,	-0.364,	0.280,	0.620,	0.450,	-0.040,	-0.036,	0.224,	0.973,	6.00
15:31:31.62,	-0.138,	0.068,	-0.360,	0.270,	0.640,	0.450,	-0.040,	-0.036,	0.217,	0.975,	6.00
15:31:31.67,	-0.141,	0.063,	-0.361,	0.260,	0.650,	0.450,	-0.040,	-0.036,	0.210,	0.976,	6.00
15:31:31.74,	-0.126,	0.056,	-0.366,	0.230,	0.600,	0.400,	-0.039,	-0.036,	0.196,	0.979,	6.00
15:31:31.79,	-0.113,	0.059,	-0.368,	0.220,	0.600,	0.380,	-0.039,	-0.036,	0.187,	0.981,	6.00
15:31:31.84,	-0.101,	0.067,	-0.370,	0.240,	0.600,	0.380,	-0.039,	-0.035,	0.185,	0.981,	6.00
15:31:31.88,	-0.096,	0.076,	-0.373,	0.220,	0.600,	0.380,	-0.038,	-0.035,	0.179,	0.982,	6.00
15:31:31.93,	-0.092,	0.071,	-0.374,	0.240,	0.570,	0.390,	-0.038,	-0.035,	0.175,	0.983,	6.00
15:31:31.98,	-0.091,	0.062,	-0.371,	0.230,	0.550,	0.410,	-0.037,	-0.034,	0.169,	0.984,	6.00
15:31:32.02,	-0.087,	0.058,	-0.377,	0.230,	0.530,	0.380,	-0.037,	-0.034,	0.162,	0.986,	7.00
15:31:32.07,	-0.084,	0.066,	-0.376,	0.220,	0.540,	0.330,	-0.037,	-0.034,	0.158,	0.986,	7.00
15:31:32.11,	-0.073,	0.081,	-0.379,	0.210,	0.520,	0.330,	-0.036,	-0.033,	0.152,	0.987,	7.00
15:31:32.16,	-0.064,	0.089,	-0.381,	0.220,	0.510,	0.280,	-0.036,	-0.032,	0.149,	0.988,	7.00
15:31:32.21,	-0.060,	0.090,	-0.382,	0.260,	0.500,	0.270,	-0.035,	-0.032,	0.143,	0.989,	7.00
15:31:32.25,	-0.061,	0.082,	-0.383,	0.240,	0.460,	0.250,	-0.034,	-0.031,	0.136,	0.990,	7.00
15:31:32.30,	-0.069,	0.080,	-0.382,	0.250,	0.470,	0.210,	-0.034,	-0.030,	0.130,	0.990,	7.00
15:31:32.34,	-0.069,	0.089,	-0.381,	0.240,	0.450,	0.190,	-0.034,	-0.030,	0.123,	0.991,	7.00
15:31:32.39,	-0.069,	0.099,	-0.381,	0.240,	0.450,	0.140,	-0.033,	-0.029,	0.119,	0.992,	7.00
15:31:32.44,	-0.063,	0.106,	-0.382,	0.270,	0.430,	0.040,	-0.033,	-0.028,	0.112,	0.993,	7.00
15:31:32.48,	-0.063,	0.106,	-0.383,	0.280,	0.410,	-0.030,	-0.032,	-0.027,	0.106,	0.994,	7.00
15:31:32.53,	-0.063,	0.107,	-0.380,	0.270,	0.400,	-0.100,	-0.032,	-0.026,	0.098,	0.994,	7.00
15:31:32.57,	-0.070,	0.104,	-0.383,	0.250,	0.400,	-0.190,	-0.032,	-0.025,	0.092,	0.995,	7.00
15:31:32.62,	-0.081,	0.108,	-0.380,	0.280,	0.390,	-0.300,	-0.032,	-0.024,	0.086,	0.995,	7.00
15:31:32.67,	-0.083,	0.108,	-0.379,	0.280,	0.370,	-0.420,	-0.033,	-0.023,	0.078,	0.996,	7.00
15:31:32.71,	-0.088,	0.103,	-0.377,	0.280,	0.390,	-0.500,	-0.033,	-0.023,	0.073,	0.997,	7.00
15:31:32.76,	-0.089,	0.109,	-0.380,	0.270,	0.400,	-0.600,	-0.033,	-0.022,	0.065,	0.997,	7.00
15:31:32.81,	-0.091,	0.113,	-0.380,	0.280,	0.400,	-0.690,	-0.034,	-0.021,	0.056,	0.998,	7.00
15:31:32.85,	-0.094,	0.116,	-0.378,	0.280,	0.400,	-0.830,	-0.034,	-0.020,	0.049,	0.998,	7.00
15:31:32.90,	-0.100,	0.112,	-0.378,	0.280,	0.400,	-1.000,	-0.034,	-0.020,	0.042,	0.998,	7.00
15:31:32.95,	-0.110,	0.096,	-0.376,	0.260,	0.400,	-1.100,	-0.035,	-0.019,	0.034,	0.999,	7.00
15:31:32.99,	-0.126,	0.089,	-0.374,	0.220,	0.420,	-1.240,	-0.036,	-0.019,	0.027,	0.999,	7.00
15:31:33.04,	-0.130,	0.079,	-0.376,	0.230,	0.460,	-1.370,	-0.037,	-0.019,	0.018,	0.999,	7.00
15:31:33.08,	-0.127,	0.080,	-0.377,	0.200,	0.450,	-1.480,	-0.038,	-0.019,	0.009,	0.999,	7.00
15:31:33.13,	-0.119,	0.086,	-0.379,	0.200,	0.470,	-1.650,	-0.039,	-0.019,	-0.000,	0.999,	7.00
15:31:33.18,	-0.118,	0.089,	-0.378,	0.160,	0.450,	-1.770,	-0.039,	-0.018,	-0.008,	0.999,	7.00
15:31:33.23,	-0.124,	0.078,	-0.379,	0.170,	0.480,	-1.890,	-0.040,	-0.018,	-0.018,	0.999,	7.00
15:31:33.28,	-0.119,	0.051,	-0.382,	0.150,	0.500,	-2.000,	-0.041,	-0.018,	-0.027,	0.999,	7.00
15:31:33.32,	-0.117,	0.041,	-0.380,	0.120,	0.490,	-2.090,	-0.041,	-0.019,	-0.036,	0.998,	7.00
15:31:33.37,	-0.114,	0.039,	-0.383,	0.070,	0.520,	-2.170,	-0.042,	-0.019,	-0.045,	0.998,	7.00
15:31:33.41,	-0.112,	0.037,	-0.386,	0.040,	0.520,	-2.270,	-0.043,	-0.019,	-0.056,	0.997,	7.00
15:31:33.46,	-0.103,	0.032,	-0.390,	0.030,	0.530,	-2.290,	-0.043,	-0.020,	-0.068,	0.997,	7.00
15:31:33.50,	-0.092,	0.032,	-0.393,	0.020,	0.530,	-2.340,	-0.043,	-0.020,	-0.078,	0.996,	7.00
15:31:33.55,	-0.074,	0.024,	-0.398,	0.010,	0.510,	-2.360,	-0.043,	-0.020,	-0.089,	0.995,	7.00
15:31:33.60,	-0.068,	0.024,	-0.406,	0.000,	0.500,	-2.370,	-0.043,	-0.021,	-0.101,	0.994,	7.00
15:31:33.64,	-0.053,	0.016,	-0.409,	-0.020,	0.490,	-2.320,	-0.043,	-0.021,	-0.112,	0.993,	7.00
15:31:33.69,	-0.040,	0.007,	-0.413,	-0.050,	0.490,	-2.300,	-0.043,	-0.022,	-0.124,	0.991,	7.00
15:31:33.74,	-0.029,	0.006,	-0.418,	-0.050,	0.470,	-2.270,	-0.042,	-0.022,	-0.135,	0.990,	7.00
15:31:33.78,	-0.013,	0.004,	-0.422,	-0.090,	0.460,	-2.200,	-0.041,	-0.023,	-0.143,	0.989,	7.00
15:31:33.83,	0.001,	0.006,	-0.426,	-0.090,	0.410,	-2.130,	-0.040,	-0.023,	-0.156,	0.987,	7.00
15:31:33.88,	0.014,	0.017,	-0.430,	-0.090,	0.370,	-1.970,	-0.039,	-0.024,	-0.169,	0.985,	7.00
15:31:33.93,	0.032,	0.029,	-0.433,	-0.100,	0.350,	-1.820,	-0.037,	-0.024,	-0.179,	0.983,	7.00
15:31:33.97,	0.048,	0.032,	-0.441,	-0.060,	0.290,	-1.720,	-0.035,	-0.024,	-0.193,	0.980,	7.00
15:31:34.02,	0.054,	0.026,	-0.443,	-0.040,	0.240,	-1.610,	-0.034,	-0.024,	-0.204,	0.978,	7.00
15:31:34.07,	0.058,	0.028,	-0.443,	-0.030,	0.220,	-1.520,	-0.032,	-0.024,	-0.218,	0.975,	7.00
15:31:34.12,	0.064,	0.028,	-0.447,	-0.030,	0.170,	-1.450,	-0.030,	-0.024,	-0.232,	0.972,	7.00
15:31:34.16,	0.073,	0.034,	-0.449,	-0.010,	0.120,	-1.400,	-0.028,	-0.024,	-0.245,	0.969,	7.00
15:31:34.21,	0.073,	0.051,	-0.450,	-0.010,	0.090,	-1.370,	-0.026,	-0.023,	-0.258,	0.966,	7.00
15:31:34.25,	0.072,	0.066,	-0.452,	0.000,	0.050,	-1.370,	-0.024,	-0.022,	-0.270,	0.962,	7.00
15:31:34.30,	0.079,	0.079,	-0.457,	0.060,	0.000,	-1.300,	-0.022,	-0.022,	-0.282,	0.959,	7.00
15:31:34.34,	0.086,	0.078,	-0.457,	0.100,	-0.040,	-1.250,	-0.020,	-0.021,	-0.295,	0.955,	7.00
15:31:34.39,	0.083,	0.080,	-0.458,	0.120,	-0.080,	-1.190,	-0.017,	-0.020,	-0.309,	0.951,	7.00
15:31:34.44,	0.080,	0.082,	-0.458,	0.150,	-0.120,	-1.130,	-0.016,	-0.019,	-0.317,	0.948,	7.00
15:31:34.49,	0.077,	0.084,	-0.460,	0.180,	-0.160,	-1.050,	-0.014,	-0.019,	-0.330,	0.944,	7.00
15:31:34.53,	0.072,	0.093,	-0.462,	0.200,	-0.210,	-1.010,	-0.012,	-0.018,	-0.341,	0.940,	7.00
15:31:34.58,	0.070,	0.106,	-0.463,	0.240,	-0.210,	-0.980,	-0.011,	-0.017,	-0.355,	0.935,	7.00
15:31:34.63,	0.072,	0.117,	-0.460,	0.250,	-0.230,	-0.930,	-0.009,	-0.016,	-0.368,	0.930,	7.00
15:31:34.68,	0.073,	0.128,	-0.463,	0.300,	-0.250,	-0.830,	-0.007,	-0.014,	-0.381,	0.924,	7.00
15:31:34.73,	0.076,	0.122,	-0.466,	0.380,	-0.290,	-0.740,	-0.006,	-0.013,	-0.395,	0.919,	7.00
15:31:34.77,	0.071,	0.113,	-0.467,	0.400,	-0.290,	-0.610,	-0.005,	-0.013,	-0.406,	0.914,	7.00
15:31:34.82,	0.064,	0.110,	-0.467,	0.420,	-0.330,	-0.500,	-0.005,	-0.012,	-0.419,	0.908,	7.00
15:31:34.86,	0.063,	0.111,	-0.468,	0.440,	-0.330,	-0.390,	-0.004,	-0.011,	-0.429,	0.903,	7.00
15:31:34.91,	0.059,	0.120,	-0.466,	0.470,	-0.320,	-0.300,	-0.004,	-0.011,	-0.442,	0.897,	7.00
15:31:34.96,	0.063,	0.130,	-0.467,	0.500,	-0.350,	-0.210,	-0.003,	-0.010,	-0.455,	0.890,	7.00
15:31:35.00,	0.067,	0.132,	-0.470,	0.530,	-0.340,	-0.120,	-0.002,	-0.009,	-0.467,	0.884,	7.00
15:31:35.05,	0.069,	0.127,	-0.471,	0.550,	-0.350,	-0.060,	-0.002,	-0.009,	-0.480,	0.877,	7.00
15:31:35.10,	0.076,	0.112,	-0.476,	0.560,	-0.370,	0.000,	-0.001,	-0.009,	-0.493,	0.870,	7.00
15:31:35.14,	0.077,	0.108,	-0.476,	0.590,	-0.350,	0.050,	-0.001,	-0.009,	-0.501,	0.866,	7.00
15:31:35.19,	0.080,	0.104,	-0.477,	0.570,	-0.360,	0.100,	-0.001,	-0.009,	-0.511,	0.860,	7.00
15:31:35.24,	0.083,	0.109,	-0.481,	0.590,	-0.370,	0.160,	-0.001,	-0.009,	-0.523,	0.852,	7.00
15:31:35.28,	0.091,	0.119,	-0.483,	0.600,	-0.370,	0.170,	-0.000,	-0.009,	-0.536,	0.844,	7.00
15:31:35.33,	0.099,	0.127,	-0.483,	0.610,	-0.390,	0.180,	0.000,	-0.009,	-0.550,	0.835,	7.00
15:31:35.38,	0.117,	0.122,	-0.490,	0.600,	-0.410,	0.170,	0.001,	-0.010,	-0.562,	0.827,	7.00
15:31:35.42,	0.130,	0.114,	-0.496,	0.600,	-0.440,	0.180,	0.001,	-0.011,	-0.575,	0.818,	7.00
15:31:35.47,	0.142,	0.111,	-0.499,	0.600,	-0.430,	0.150,	0.002,	-0.012,	-0.588,	0.809,	7.00
15:31:35.52,	0.151,	0.117,	-0.504,	0.570,	-0.480,	0.180,	0.002,	-0.012,	-0.598,	0.801,	7.00
15:31:35.56,	0.161,	0.129,	-0.507,	0.580,	-0.490,	0.210,	0.002,	-0.013,	-0.611,	0.792,	7.00
15:31:35.61,	0.170,	0.137,	-0.509,	0.570,	-0.480,	0.240,	0.003,	-0.014,	-0.623,	0.782,	7.00
15:31:35.66,	0.184,	0.150,	-0.512,	0.570,	-0.530,	0.300,	0.004,	-0.014,	-0.633,	0.774,	7.00
15:31:35.70,	0.194,	0.157,	-0.517,	0.600,	-0.530,	0.330,	0.005,	-0.015,	-0.646,	0.763,	7.00
15:31:35.75,	0.216,	0.158,	-0.521,	0.610,	-0.580,	0.370,	0.005,	-0.016,	-0.653,	0.757,	7.00
15:31:35.80,	0.221,	0.158,	-0.524,	0.620,	-0.590,	0.400,	0.006,	-0.017,	-0.664,	0.748,	7.00
15:31:35.84,	0.227,	0.164,	-0.528,	0.600,	-0.620,	0.440,	0.007,	-0.018,	-0.672,	0.740,	7.00
15:31:35.89,	0.236,	0.179,	-0.528,	0.610,	-0.650,	0.450,	0.008,	-0.018,	-0.682,	0.731,	7.00
15:31:35.93,	0.234,	0.200,	-0.530,	0.640,	-0.650,	0.490,	0.008,	-0.018,	-0.692,	0.722,	7.00
15:31:35.98,	0.237,	0.216,	-0.530,	0.650,	-0.670,	0.580,	0.009,	-0.018,	-0.701,	0.713,	7.00
15:31:36.03,	0.243,	0.216,	-0.531,	0.680,	-0.690,	0.610,	0.010,	-0.019,	-0.709,	0.704,	7.00
15:31:36.07,	0.244,	0.212,	-0.536,	0.700,	-0.680,	0.680,	0.010,	-0.019,	-0.716,	0.697,	7.00
15:31:36.12,	0.241,	0.221,	-0.537,	0.690,	-0.690,	0.720,	0.011,	-0.019,	-0.724,	0.689,	7.00
15:31:36.16,	0.236,	0.230,	-0.536,	0.710,	-0.710,	0.730,	0.011,	-0.019,	-0.731,	0.682,	7.00
15:31:36.21,	0.224,	0.240,	-0.533,	0.750,	-0.740,	0.720,	0.012,	-0.018,	-0.738,	0.675,	7.00
15:31:36.25,	0.210,	0.242,	-0.530,	0.770,	-0.700,	0.690,	0.012,	-0.017,	-0.745,	0.666,	7.00
15:31:36.30,	0.199,	0.243,	-0.530,	0.740,	-0.690,	0.640,	0.012,	-0.017,	-0.751,	0.660,	7.00
15:31:36.35,	0.193,	0.242,	-0.533,	0.740,	-0.690,	0.570,	0.012,	-0.016,	-0.757,	0.653,	7.00
15:31:36.43,	0.168,	0.247,	-0.527,	0.790,	-0.660,	0.520,	0.011,	-0.014,	-0.766,	0.643,	7.00
15:31:36.48,	0.158,	0.240,	-0.527,	0.790,	-0.650,	0.490,	0.010,	-0.013,	-0.771,	0.636,	7.00
15:31:36.52,	0.140,	0.222,	-0.526,	0.790,	-0.620,	0.420,	0.009,	-0.013,	-0.774,	0.633,	7.00
15:31:36.57,	0.112,	0.210,	-0.520,	0.760,	-0.610,	0.360,	0.008,	-0.012,	-0.779,	0.627,	7.00
15:31:36.61,	0.092,	0.207,	-0.514,	0.720,	-0.570,	0.290,	0.006,	-0.011,	-0.783,	0.622,	7.00
15:31:36.66,	0.078,	0.204,	-0.514,	0.730,	-0.510,	0.210,	0.005,	-0.009,	-0.787,	0.617,	7.00
15:31:36.70,	0.072,	0.194,	-0.512,	0.720,	-0.450,	0.140,	0.003,	-0.008,	-0.792,	0.611,	7.00
15:31:36.75,	0.059,	0.174,	-0.511,	0.720,	-0.460,	0.120,	0.001,	-0.008,	-0.798,	0.603,	7.00
15:31:36.80,	0.043,	0.156,	-0.511,	0.680,	-0.390,	0.070,	-0.000,	-0.007,	-0.801,	0.599,	7.00
15:31:36.85,	0.026,	0.127,	-0.508,	0.640,	-0.380,	0.060,	-0.002,	-0.006,	-0.805,	0.593,	7.00
15:31:36.89,	0.008,	0.116,	-0.504,	0.620,	-0.330,	0.000,	-0.005,	-0.005,	-0.808,	0.589,	7.00
15:31:36.93,	-0.004,	0.104,	-0.503,	0.600,	-0.290,	0.010,	-0.006,	-0.005,	-0.811,	0.585,	7.00
15:31:36.98,	-0.012,	0.093,	-0.503,	0.590,	-0.260,	0.030,	-0.008,	-0.004,	-0.815,	0.580,	7.00
15:31:37.03,	-0.019,	0.074,	-0.503,	0.560,	-0.270,	0.040,	-0.010,	-0.003,	-0.819,	0.574,	7.00
15:31:37.08,	-0.021,	0.044,	-0.501,	0.550,	-0.210,	0.040,	-0.012,	-0.003,	-0.822,	0.570,	7.00
15:31:37.12,	-0.022,	0.023,	-0.501,	0.510,	-0.190,	0.010,	-0.014,	-0.003,	-0.827,	0.562,	7.00
15:31:37.17,	-0.030,	0.012,	-0.501,	0.460,	-0.180,	-0.020,	-0.017,	-0.003,	-0.831,	0.556,	7.00
15:31:37.22,	-0.034,	-0.002,	-0.499,	0.410,	-0.130,	-0.050,	-0.018,	-0.003,	-0.834,	0.552,	7.00
